{
  "resourceType": "Bundle",
  "id": "1-tvt",
  "meta": {
    "versionId": "1",
    "lastUpdated": "2019-04-01T20:18:41.341+00:00",
    "profile": [
      "http://fhir.ch/ig/ch-orf/StructureDefinition/ch-orf-document"
    ]
  },
  "identifier": {
    "system": "urn:ietf:rfc:3986",
    "value": "urn:uuid:26d3dff7-ab05-4737-a49c-5eccd33595f8"
  },
  "type": "document",
  "timestamp": "2019-04-01T20:18:41.341+00:00",
  "entry": [
    {
      "fullUrl": "http://example.com/fhir/Composition/1-tvt",
      "resource": {
        "resourceType": "Composition",
        "id": "1-tvt",
        "meta": {
          "versionId": "1",
          "lastUpdated": "2021-02-18T17:04:38.520+00:00",
          "profile": [
            "http://fhir.ch/ig/ch-orf/StructureDefinition/ch-orf-composition"
          ]
        },
        "text": {
          "status": "extensions",
          "div": "<div xmlns=\"http://www.w3.org/1999/xhtml\"><p><b>Generated Narrative</b></p><blockquote><p><b>EPR Data Enterer</b></p><p><b>value</b>: <a href=\"#PractitionerRole_MarcMustermannArztpraxis\">See above (PractitionerRole/MarcMustermannArztpraxis)</a></p></blockquote><p><b>CH ORF Urgent Notification Contact For This Documet</b>: <a href=\"PractitionerRole-EvaErlenmeyerLaborPipette.html\">Generated Summary: </a></p><p><b>CH ORF Urgent Notification Contact For The Response To This Document</b>: <a href=\"#PractitionerRole_MarcMustermannArztpraxis\">See above (PractitionerRole/MarcMustermannArztpraxis)</a></p><p><b>CH ORF Receiver</b>: <a href=\"PractitionerRole-EvaErlenmeyerLaborPipette.html\">Generated Summary: </a></p><p><b>CH ORF Copy Receiver</b>: <a href=\"#Organization_Gruppenpraxis\">See above (Organization/Gruppenpraxis)</a></p><p><b>CH ORF Copy Receiver</b>: <a href=\"#Patient_HansGuggindieluft\">See above (Patient/HansGuggindieluft)</a></p><p><b>status</b>: final</p><p><b>type</b>: <span title=\"Codes: {http://snomed.info/sct 721965002}\">Laboratory order (record artifact)</span></p><p><b>category</b>: <span title=\"Codes: {http://snomed.info/sct 721963009}\">Order (record artifact)</span></p><p><b>date</b>: Mar 31, 2019, 11:46:09 AM</p><p><b>author</b>: <a href=\"#PractitionerRole_MarcMustermannArztpraxis\">See above (PractitionerRole/MarcMustermannArztpraxis)</a></p><p><b>title</b>: Order-Referral-Form 1-tvt</p></div>"
        },
        "extension": [
          {
            "url": "http://fhir.ch/ig/ch-core/StructureDefinition/ch-ext-epr-dataenterer",
            "extension": [
              {
                "url": "enterer",
                "valueReference": {
                  "reference": "PractitionerRole/MarcMustermannArztpraxis"
                }
              }
            ]
          },
          {
            "url": "http://fhir.ch/ig/ch-orf/StructureDefinition/ch-orf-urgentnoficationcontactforthisdocument",
            "valueReference": {
              "reference": "PractitionerRole/EvaErlenmeyerLaborPipette"
            }
          },
          {
            "url": "http://fhir.ch/ig/ch-orf/StructureDefinition/ch-orf-urgentnoficationcontactfortheresponsetothisdocument",
            "valueReference": {
              "reference": "PractitionerRole/MarcMustermannArztpraxis"
            }
          },
          {
            "url": "http://fhir.ch/ig/ch-orf/StructureDefinition/ch-orf-receiver",
            "valueReference": {
              "reference": "PractitionerRole/EvaErlenmeyerLaborPipette"
            }
          },
          {
            "url": "http://fhir.ch/ig/ch-orf/StructureDefinition/ch-orf-copyreceiver",
            "valueReference": {
              "reference": "Organization/Gruppenpraxis"
            }
          },
          {
            "url": "http://fhir.ch/ig/ch-orf/StructureDefinition/ch-orf-copyreceiver",
            "valueReference": {
              "reference": "Patient/HansGuggindieluft"
            }
          }
        ],
        "status": "final",
        "type": {
          "coding": [
            {
              "system": "http://snomed.info/sct",
              "code": "721965002",
              "display": "Laboratory order (record artifact)"
            }
          ]
        },
        "category": [
          {
            "coding": [
              {
                "system": "http://snomed.info/sct",
                "code": "721963009",
                "display": "Order (record artifact)"
              }
            ]
          }
        ],
        "subject": {
          "reference": "Patient/HansGuggindieluft"
        },
        "date": "2019-03-31T11:46:09+02:00",
        "author": [
          {
            "reference": "PractitionerRole/MarcMustermannArztpraxis"
          }
        ],
        "title": "Order-Referral-Form 1-tvt",
        "section": [
          {
            "title": "Order-Referral-Form 1-tvt",
            "code": {
              "coding": [
                {
                  "system": "http://loinc.org",
                  "code": "93037-0",
                  "display": "Portable medical order form"
                }
              ]
            },
            "text": {
              "status": "generated",
              "div": "<div xmlns=\"http://www.w3.org/1999/xhtml\">\n              Order-Referral-Form 1-tvt\n            </div>"
            },
            "entry": [
              {
                "reference": "Questionnaire/1-tvt"
              },
              {
                "reference": "QuestionnaireResponse/1-tvt"
              },
              {
                "reference": "ServiceRequest/1-tvt"
              }
            ]
          }
        ]
      }
    },
    {
      "fullUrl": "http://example.com/fhir/Patient/HansGuggindieluft",
      "resource": {
        "resourceType": "Patient",
        "id": "HansGuggindieluft",
        "meta": {
          "profile": [
            "http://fhir.ch/ig/ch-core/StructureDefinition/ch-core-patient"
          ]
        },
        "text": {
          "status": "extensions",
          "div": "<div xmlns=\"http://www.w3.org/1999/xhtml\"><p><b>Generated Narrative</b></p><p><b>Birth Place</b>: Köniz BE Schweiz </p><p><b>identifier</b>: id: 012/08.111114</p><p><b>name</b>: Hans Guggindieluft </p><p><b>gender</b>: male</p><p><b>birthDate</b>: 1981-01-01</p><p><b>maritalStatus</b>: <span title=\"Codes: {http://fhir.ch/ig/ch-core/CodeSystem/ech-11-maritalstatus 2}\">verheiratet</span></p><h3>Communications</h3><table class=\"grid\"><tr><td>-</td><td><b>Language</b></td><td><b>Preferred</b></td></tr><tr><td>*</td><td><span title=\"Codes: {urn:ietf:bcp:47 de-CH}\">Deutsch (Schweiz)</span></td><td>true</td></tr></table></div>"
        },
        "extension": [
          {
            "url": "http://hl7.org/fhir/StructureDefinition/patient-birthPlace",
            "valueAddress": {
              "city": "Köniz",
              "state": "BE",
              "country": "Schweiz"
            }
          }
        ],
        "identifier": [
          {
            "system": "urn:oid:2.16.756.5.32",
            "value": "012/08.111114"
          }
        ],
        "name": [
          {
            "family": "Guggindieluft",
            "given": [
              "Hans"
            ]
          }
        ],
        "gender": "male",
        "birthDate": "1981-01-01",
        "maritalStatus": {
          "coding": [
            {
              "system": "http://fhir.ch/ig/ch-core/CodeSystem/ech-11-maritalstatus",
              "code": "2",
              "display": "verheiratet"
            }
          ]
        },
        "communication": [
          {
            "language": {
              "coding": [
                {
                  "system": "urn:ietf:bcp:47",
                  "code": "de-CH"
                }
              ],
              "text": "Deutsch (Schweiz)"
            },
            "preferred": true
          }
        ]
      }
    },
    {
      "fullUrl": "http://example.com/fhir/Practitioner/MarcMustermann",
      "resource": {
        "resourceType": "Practitioner",
        "id": "MarcMustermann",
        "meta": {
          "profile": [
            "http://fhir.ch/ig/ch-core/StructureDefinition/ch-core-practitioner"
          ]
        },
        "text": {
          "status": "generated",
          "div": "<div xmlns=\"http://www.w3.org/1999/xhtml\"><p><b>Generated Narrative</b></p><p><b>identifier</b>: id: 7601000050702</p><p><b>name</b>: Marc Mustermann </p></div>"
        },
        "identifier": [
          {
            "system": "urn:oid:2.51.1.3",
            "value": "7601000050702"
          }
        ],
        "name": [
          {
            "family": "Mustermann",
            "given": [
              "Marc"
            ]
          }
        ]
      }
    },
    {
      "fullUrl": "http://example.com/fhir/Organization/Gruppenpraxis",
      "resource": {
        "resourceType": "Organization",
        "id": "Gruppenpraxis",
        "meta": {
          "profile": [
            "http://fhir.ch/ig/ch-core/StructureDefinition/ch-core-organization"
          ]
        },
        "text": {
          "status": "generated",
          "div": "<div xmlns=\"http://www.w3.org/1999/xhtml\"><p><b>Generated Narrative</b></p><p><b>name</b>: Gruppenpraxis Olten</p><p><b>address</b>: Gerbergasse 12 Olten 4600 CH </p></div>"
        },
        "name": "Gruppenpraxis Olten",
        "address": [
          {
            "line": [
              "Gerbergasse 12"
            ],
            "city": "Olten",
            "postalCode": "4600",
            "country": "CH"
          }
        ]
      }
    },
    {
      "fullUrl": "http://example.com/fhir/PractitionerRole/MarcMustermannArztpraxis",
      "resource": {
        "resourceType": "PractitionerRole",
        "id": "MarcMustermannArztpraxis",
        "meta": {
          "profile": [
            "http://fhir.ch/ig/ch-core/StructureDefinition/ch-core-practitionerrole"
          ]
        },
        "text": {
          "status": "generated",
          "div": "<div xmlns=\"http://www.w3.org/1999/xhtml\"><p><b>Generated Narrative</b></p><p><b>practitioner</b>: <a href=\"#Practitioner_MarcMustermann\">See above (Practitioner/MarcMustermann)</a></p><p><b>organization</b>: <a href=\"#Organization_Gruppenpraxis\">See above (Organization/Gruppenpraxis)</a></p></div>"
        },
        "practitioner": {
          "reference": "Practitioner/MarcMustermann"
        },
        "organization": {
          "reference": "Organization/Gruppenpraxis"
        }
      }
    },
    {
      "fullUrl": "http://example.com/fhir/Questionnaire/1-tvt",
      "resource": {
        "resourceType": "Questionnaire",
        "id": "1-tvt",
        "meta": {
          "versionId": "1",
          "lastUpdated": "2019-04-01T20:17:53.340+00:00",
          "profile": [
            "http://fhir.ch/ig/ch-orf/StructureDefinition/ch-orf-questionnaire",
            "http://hl7.org/fhir/uv/sdc/StructureDefinition/sdc-questionnaire",
            "http://hl7.org/fhir/uv/sdc/StructureDefinition/sdc-questionnaire-extract"
          ]
        },
        "text": {
          "status": "extensions",
          "div": "<div xmlns=\"http://www.w3.org/1999/xhtml\"><p><b>Generated Narrative</b></p><p><b>Target structure map</b>: <a href=\"http://fhir.ch/ig/ch-orf/StructureMap/OrfQrToBundle\">http://fhir.ch/ig/ch-orf/StructureMap/OrfQrToBundle</a></p><p><b>Source structure map</b>: <a href=\"http://fhir.ch/ig/ch-orf/StructureMap/OrfPrepopBundleToQr\">http://fhir.ch/ig/ch-orf/StructureMap/OrfPrepopBundleToQr</a></p><blockquote><p><b>Launch context resources</b></p><p><b>value</b>: Bundle</p><p><b>value</b>: Bundle</p><p><b>value</b>: The Bundle that is to be used to pre-populate the form</p></blockquote><p><b>url</b>: <code>http://fhir.ch/ig/ch-lab-order/Questionnaire/1-tvt</code></p><p><b>version</b>: 0.9.1</p><p><b>name</b>: LabOrderFormExample</p><p><b>title</b>: Lab Order Form Example</p><p><b>status</b>: active</p><p><b>subjectType</b>: Patient</p><p><b>date</b>: 2020-12-17</p><p><b>publisher</b>: HL7 Switzerland</p><p><b>contact</b>: HL7 Switzerland: <a href=\"https://www.hl7.ch/\">https://www.hl7.ch/</a></p><p><b>jurisdiction</b>: <span title=\"Codes: {urn:iso:std:iso:3166 CH}\">Switzerland</span></p><p><b>copyright</b>: CC-BY-SA-4.0</p><blockquote><p><b>item</b></p><p><b>linkId</b>: order</p><p><b>text</b>: Auftrag</p><p><b>type</b>: group</p><p><b>required</b>: true</p><blockquote><p><b>item</b></p><p><b>linkId</b>: order.title</p><p><b>text</b>: Titel</p><p><b>type</b>: string</p></blockquote><blockquote><p><b>item</b></p><p><b>linkId</b>: order.type</p><p><b>text</b>: Typ</p><p><b>type</b>: choice</p><p><b>answerValueSet</b>: <a href=\"http://fhir.ch/ig/ch-epr-term/ValueSet/DocumentEntry.typeCode\">http://fhir.ch/ig/ch-epr-term/ValueSet/DocumentEntry.typeCode</a></p></blockquote><blockquote><p><b>item</b></p><p><b>linkId</b>: order.category</p><p><b>text</b>: Kategorie</p><p><b>type</b>: choice</p><p><b>answerValueSet</b>: <a href=\"http://fhir.ch/ig/ch-epr-term/ValueSet/DocumentEntry.classCode\">http://fhir.ch/ig/ch-epr-term/ValueSet/DocumentEntry.classCode</a></p></blockquote><blockquote><p><b>item</b></p><p><b>linkId</b>: order.placerOrderIdentifier</p><p><b>text</b>: Auftragsnummer des Auftraggebers</p><p><b>type</b>: string</p></blockquote><blockquote><p><b>item</b></p><p><b>hidden</b>: true</p><p><b>linkId</b>: order.placerOrderIdentifierDomain</p><p><b>text</b>: Identifier Domain der Auftragsnummer des Auftraggebers</p><p><b>type</b>: string</p></blockquote><blockquote><p><b>item</b></p><p><b>linkId</b>: order.fillerOrderIdentifier</p><p><b>text</b>: Auftragsnummer des Auftragsempfängers</p><p><b>type</b>: string</p></blockquote><blockquote><p><b>item</b></p><p><b>hidden</b>: true</p><p><b>linkId</b>: order.fillerOrderIdentifierDomain</p><p><b>text</b>: Identifier Domain der Auftragsnummer des Auftragsempfängers</p><p><b>type</b>: string</p></blockquote><blockquote><p><b>item</b></p><p><b>hidden</b>: true</p><p><b>linkId</b>: order.precedentDocumentIdentifier</p><p><b>text</b>: Identifier des Vorgängerdokuments</p><p><b>type</b>: string</p></blockquote><blockquote><p><b>item</b></p><p><b>linkId</b>: order.notificationContactDocument</p><p><b>text</b>: Dringender Benachrichtigungskontakt für dieses Dokument</p><p><b>type</b>: group</p></blockquote><blockquote><p><b>item</b></p><p><b>linkId</b>: order.notificationContactDocumentResponse</p><p><b>text</b>: Dringender Benachrichtigungskontakt für die Antwort auf dieses Dokument</p><p><b>type</b>: group</p></blockquote><blockquote><p><b>item</b></p><p><b>linkId</b>: order.priority</p><p><b>text</b>: Auftragspriorität</p><p><b>type</b>: choice</p></blockquote></blockquote><blockquote><p><b>item</b></p><p><b>linkId</b>: receiver</p><p><b>text</b>: Empfänger</p><p><b>type</b>: group</p><blockquote><p><b>item</b></p><p><b>linkId</b>: receiver.practitioner</p><p><b>text</b>: Empfangende Person</p><p><b>type</b>: group</p></blockquote><blockquote><p><b>item</b></p><p><b>linkId</b>: receiver.organization</p><p><b>text</b>: Empfangende Organisation</p><p><b>type</b>: group</p></blockquote></blockquote><blockquote><p><b>item</b></p><p><b>linkId</b>: patient</p><p><b>text</b>: Patient</p><p><b>type</b>: group</p><blockquote><p><b>item</b></p><p><b>linkId</b>: patient.familyName</p><p><b>text</b>: Name</p><p><b>type</b>: string</p></blockquote><blockquote><p><b>item</b></p><p><b>linkId</b>: patient.maidenName</p><p><b>text</b>: Ledigname</p><p><b>type</b>: string</p></blockquote><blockquote><p><b>item</b></p><p><b>linkId</b>: patient.givenName</p><p><b>text</b>: Vorname</p><p><b>type</b>: string</p></blockquote><blockquote><p><b>item</b></p><p><b>linkId</b>: patient.localPid</p><p><b>text</b>: Lokale Patienten-ID</p><p><b>type</b>: string</p></blockquote><blockquote><p><b>item</b></p><p><b>linkId</b>: patient.birthDate</p><p><b>text</b>: Geburtsdatum</p><p><b>type</b>: date</p></blockquote><blockquote><p><b>item</b></p><p><b>linkId</b>: patient.gender</p><p><b>text</b>: Geschlecht</p><p><b>type</b>: choice</p></blockquote><blockquote><p><b>item</b></p><p><b>linkId</b>: patient.phone</p><p><b>text</b>: Telefon</p><p><b>type</b>: string</p></blockquote><blockquote><p><b>item</b></p><p><b>linkId</b>: patient.email</p><p><b>text</b>: E-Mail</p><p><b>type</b>: string</p></blockquote><blockquote><p><b>item</b></p><p><b>linkId</b>: patient.streetAddressLine</p><p><b>text</b>: Strasse, Hausnummer, Postfach etc.</p><p><b>type</b>: string</p><p><b>repeats</b>: true</p></blockquote><blockquote><p><b>item</b></p><p><b>linkId</b>: patient.postalCode</p><p><b>text</b>: PLZ</p><p><b>type</b>: string</p></blockquote><blockquote><p><b>item</b></p><p><b>linkId</b>: patient.city</p><p><b>text</b>: Ort</p><p><b>type</b>: string</p></blockquote><blockquote><p><b>item</b></p><p><b>linkId</b>: patient.country</p><p><b>text</b>: Land</p><p><b>type</b>: string</p></blockquote></blockquote><blockquote><p><b>item</b></p><p><b>linkId</b>: sender</p><p><b>text</b>: Absender</p><p><b>type</b>: group</p><p><b>required</b>: true</p><blockquote><p><b>item</b></p><p><b>linkId</b>: sender.author</p><p><b>text</b>: Verantwortlicher</p><p><b>type</b>: group</p><p><b>required</b>: true</p></blockquote><blockquote><p><b>item</b></p><p><b>linkId</b>: sender.dataenterer</p><p><b>text</b>: Erfasser</p><p><b>type</b>: group</p></blockquote></blockquote><blockquote><p><b>item</b></p><p><b>linkId</b>: receiverCopies</p><p><b>text</b>: Kopieempfänger</p><p><b>type</b>: group</p><blockquote><p><b>item</b></p><p><b>linkId</b>: receiverCopy</p><p><b>text</b>: Kopieempfangende Organisation oder Person</p><p><b>type</b>: group</p><p><b>repeats</b>: true</p></blockquote></blockquote><blockquote><p><b>item</b></p><p><b>linkId</b>: hematology</p><p><b>text</b>: Hematology</p><p><b>type</b>: group</p><blockquote><p><b>item</b></p><p><b>linkId</b>: hemato-subset</p><p><b>text</b>: Hämatologie Subset</p><p><b>type</b>: choice</p><p><b>repeats</b>: true</p></blockquote></blockquote><blockquote><p><b>item</b></p><p><b>linkId</b>: coagulation</p><p><b>text</b>: Coagulation</p><p><b>type</b>: group</p><blockquote><p><b>item</b></p><p><b>linkId</b>: d-dimer</p><p><b>text</b>: D-Dimer</p><p><b>type</b>: choice</p><p><b>repeats</b>: true</p></blockquote></blockquote><blockquote><p><b>item</b></p><p><b>linkId</b>: cc</p><p><b>text</b>: clinical chemistry</p><p><b>type</b>: group</p><blockquote><p><b>item</b></p><p><b>linkId</b>: crp</p><p><b>text</b>: CRP</p><p><b>type</b>: choice</p><p><b>repeats</b>: true</p></blockquote></blockquote><blockquote><p><b>item</b></p><p><b>linkId</b>: consent</p><p><b>definition</b>: <a href=\"http://fhir.ch/ig/ch-lab-order/StructureDefinition/ch-lab-order-servicerequest#ServiceRequest.supportingInfo\">http://fhir.ch/ig/ch-lab-order/StructureDefinition/ch-lab-order-servicerequest#ServiceRequest.supportingInfo</a></p><p><b>text</b>: Einverständniserklärung</p><p><b>type</b>: group</p><h3>Items</h3><table class=\"grid\"><tr><td>-</td><td><b>LinkId</b></td><td><b>Text</b></td><td><b>Type</b></td></tr><tr><td>*</td><td>consent.treatment</td><td>Einverständnis des Patienten zur Behandlung</td><td>string</td></tr><tr><td>*</td><td>consent.patientPrivacy</td><td>Einverständnis des Patienten zum Datenschutz</td><td>string</td></tr><tr><td>*</td><td>consent.research</td><td>Einverständnis des Patienten zur Forschung</td><td>string</td></tr><tr><td>*</td><td>consent.advancedCareDirective</td><td>Patientenverfügung</td><td>string</td></tr></table></blockquote><blockquote><p><b>item</b></p><p><b>linkId</b>: coverage</p><p><b>definition</b>: <a href=\"http://fhir.ch/ig/ch-lab-order/StructureDefinition/ch-lab-order-servicerequest#ServiceRequest.insurance\">http://fhir.ch/ig/ch-lab-order/StructureDefinition/ch-lab-order-servicerequest#ServiceRequest.insurance</a></p><p><b>text</b>: Kostenträger</p><p><b>type</b>: group</p><h3>Items</h3><table class=\"grid\"><tr><td>-</td><td><b>LinkId</b></td><td><b>Text</b></td><td><b>Type</b></td></tr><tr><td>*</td><td>coverage.uvg</td><td>Unfallversicherung (nach UVG)</td><td>string</td></tr><tr><td>*</td><td>coverage.kvg</td><td>Grundversicherung (nach KVG)</td><td>string</td></tr><tr><td>*</td><td>coverage.vvg</td><td>Zusatzversicherung (nach VVG)</td><td>string</td></tr><tr><td>*</td><td>coverage.vvgOther</td><td>Andere (nach VVG)</td><td>string</td></tr></table></blockquote><blockquote><p><b>item</b></p><p><b>linkId</b>: previousResult</p><p><b>definition</b>: <a href=\"http://fhir.ch/ig/ch-lab-order/StructureDefinition/ch-lab-order-servicerequest#ServiceRequest.supportingInfo\">http://fhir.ch/ig/ch-lab-order/StructureDefinition/ch-lab-order-servicerequest#ServiceRequest.supportingInfo</a></p><p><b>text</b>: Vorheriges Untersuchungsresultat</p><p><b>type</b>: group</p><h3>Items</h3><table class=\"grid\"><tr><td>-</td><td><b>LinkId</b></td><td><b>Text</b></td><td><b>Type</b></td><td><b>Repeats</b></td></tr><tr><td>*</td><td>previousResult.result</td><td>Untersuchungsresultat</td><td>string</td><td>true</td></tr></table></blockquote></div>"
        },
        "extension": [
          {
            "url": "http://hl7.org/fhir/uv/sdc/StructureDefinition/sdc-questionnaire-targetStructureMap",
            "valueCanonical": "http://fhir.ch/ig/ch-orf/StructureMap/OrfQrToBundle"
          },
          {
            "url": "http://hl7.org/fhir/uv/sdc/StructureDefinition/sdc-questionnaire-sourceStructureMap",
            "valueCanonical": "http://fhir.ch/ig/ch-orf/StructureMap/OrfPrepopBundleToQr"
          },
          {
            "url": "http://hl7.org/fhir/uv/sdc/StructureDefinition/sdc-questionnaire-launchContext",
            "extension": [
              {
                "url": "name",
                "valueId": "Bundle"
              },
              {
                "url": "type",
                "valueCode": "Bundle"
              },
              {
                "url": "description",
                "valueString": "The Bundle that is to be used to pre-populate the form"
              }
            ]
          }
        ],
        "url": "http://fhir.ch/ig/ch-lab-order/Questionnaire/1-tvt",
        "version": "0.9.1",
        "name": "LabOrderFormExample",
        "title": "Lab Order Form Example",
        "status": "active",
        "subjectType": [
          "Patient"
        ],
        "date": "2020-12-17",
        "publisher": "HL7 Switzerland",
        "contact": [
          {
            "name": "HL7 Switzerland",
            "telecom": [
              {
                "system": "url",
                "value": "https://www.hl7.ch/"
              }
            ]
          }
        ],
        "jurisdiction": [
          {
            "coding": [
              {
                "system": "urn:iso:std:iso:3166",
                "code": "CH"
              }
            ]
          }
        ],
        "copyright": "CC-BY-SA-4.0",
        "item": [
          {
            "linkId": "order",
            "text": "Auftrag",
            "type": "group",
            "required": true,
            "item": [
              {
                "linkId": "order.title",
                "text": "Titel",
                "type": "string"
              },
              {
                "linkId": "order.type",
                "text": "Typ",
                "type": "choice",
                "answerValueSet": "http://fhir.ch/ig/ch-epr-term/ValueSet/DocumentEntry.typeCode"
              },
              {
                "linkId": "order.category",
                "text": "Kategorie",
                "type": "choice",
                "answerValueSet": "http://fhir.ch/ig/ch-epr-term/ValueSet/DocumentEntry.classCode"
              },
              {
                "linkId": "order.placerOrderIdentifier",
                "text": "Auftragsnummer des Auftraggebers",
                "type": "string"
              },
              {
                "extension": [
                  {
                    "url": "http://hl7.org/fhir/StructureDefinition/questionnaire-hidden",
                    "valueBoolean": true
                  }
                ],
                "linkId": "order.placerOrderIdentifierDomain",
                "text": "Identifier Domain der Auftragsnummer des Auftraggebers",
                "type": "string"
              },
              {
                "linkId": "order.fillerOrderIdentifier",
                "text": "Auftragsnummer des Auftragsempfängers",
                "type": "string"
              },
              {
                "extension": [
                  {
                    "url": "http://hl7.org/fhir/StructureDefinition/questionnaire-hidden",
                    "valueBoolean": true
                  }
                ],
                "linkId": "order.fillerOrderIdentifierDomain",
                "text": "Identifier Domain der Auftragsnummer des Auftragsempfängers",
                "type": "string"
              },
              {
                "extension": [
                  {
                    "url": "http://hl7.org/fhir/StructureDefinition/questionnaire-hidden",
                    "valueBoolean": true
                  }
                ],
                "linkId": "order.precedentDocumentIdentifier",
                "text": "Identifier des Vorgängerdokuments",
                "type": "string"
              },
              {
                "linkId": "order.notificationContactDocument",
                "text": "Dringender Benachrichtigungskontakt für dieses Dokument",
                "type": "group",
                "item": [
                  {
                    "linkId": "order.notificationContactDocument.practitioner",
                    "text": "Zu benachrichtigende Person",
                    "type": "group",
                    "item": [
                      {
                        "linkId": "order.notificationContactDocument.practitioner.title",
                        "text": "Titel",
                        "type": "string"
                      },
                      {
                        "linkId": "order.notificationContactDocument.practitioner.familyName",
                        "text": "Name",
                        "type": "string"
                      },
                      {
                        "linkId": "order.notificationContactDocument.practitioner.givenName",
                        "text": "Vorname",
                        "type": "string"
                      },
                      {
                        "linkId": "order.notificationContactDocument.practitioner.phone",
                        "text": "Telefon",
                        "type": "string"
                      },
                      {
                        "linkId": "order.notificationContactDocument.practitioner.email",
                        "text": "E-Mail",
                        "type": "string"
                      }
                    ]
                  }
                ]
              },
              {
                "linkId": "order.notificationContactDocumentResponse",
                "text": "Dringender Benachrichtigungskontakt für die Antwort auf dieses Dokument",
                "type": "group",
                "item": [
                  {
                    "linkId": "order.notificationContactDocumentResponse.practitioner",
                    "text": "Zu benachrichtigende Person",
                    "type": "group",
                    "item": [
                      {
                        "linkId": "order.notificationContactDocumentResponse.practitioner.title",
                        "text": "Titel",
                        "type": "string"
                      },
                      {
                        "linkId": "order.notificationContactDocumentResponse.practitioner.familyName",
                        "text": "Name",
                        "type": "string"
                      },
                      {
                        "linkId": "order.notificationContactDocumentResponse.practitioner.givenName",
                        "text": "Vorname",
                        "type": "string"
                      },
                      {
                        "linkId": "order.notificationContactDocumentResponse.practitioner.phone",
                        "text": "Telefon",
                        "type": "string"
                      },
                      {
                        "linkId": "order.notificationContactDocumentResponse.practitioner.email",
                        "text": "E-Mail",
                        "type": "string"
                      }
                    ]
                  }
                ]
              },
              {
                "linkId": "order.priority",
                "text": "Auftragspriorität",
                "type": "choice",
                "answerOption": [
                  {
                    "valueCoding": {
                      "system": "http://hl7.org/fhir/request-priority",
                      "code": "routine",
                      "display": "Die Anfrage hat normale Priorität."
                    },
                    "initialSelected": true
                  },
                  {
                    "valueCoding": {
                      "system": "http://hl7.org/fhir/request-priority",
                      "code": "urgent",
                      "display": "Die Anfrage sollte dringend bearbeitet werden - höhere Priorität als normal."
                    }
                  },
                  {
                    "valueCoding": {
                      "system": "http://hl7.org/fhir/request-priority",
                      "code": "asap",
                      "display": "Die Anfrage sollte so schnell wie möglich bearbeitet werden - höhere Priorität als dringend."
                    }
                  },
                  {
                    "valueCoding": {
                      "system": "http://hl7.org/fhir/request-priority",
                      "code": "stat",
                      "display": "Die Anfrage sollte sofort bearbeitet werden - höchstmögliche Priorität. Z.B. bei einem Notfall."
                    }
                  }
                ]
              }
            ]
          },
          {
            "linkId": "receiver",
            "text": "Empfänger",
            "type": "group",
            "item": [
              {
                "linkId": "receiver.practitioner",
                "text": "Empfangende Person",
                "type": "group",
                "item": [
                  {
                    "linkId": "receiver.practitioner.title",
                    "text": "Titel",
                    "type": "string"
                  },
                  {
                    "linkId": "receiver.practitioner.familyName",
                    "text": "Name",
                    "type": "string"
                  },
                  {
                    "linkId": "receiver.practitioner.givenName",
                    "text": "Vorname",
                    "type": "string"
                  },
                  {
                    "linkId": "receiver.practitioner.gln",
                    "text": "GLN",
                    "type": "string"
                  },
                  {
                    "linkId": "receiver.practitioner.phone",
                    "text": "Telefon",
                    "type": "string"
                  },
                  {
                    "linkId": "receiver.practitioner.email",
                    "text": "E-Mail",
                    "type": "string"
                  }
                ]
              },
              {
                "linkId": "receiver.organization",
                "text": "Empfangende Organisation",
                "type": "group",
                "item": [
                  {
                    "linkId": "receiver.organization.name",
                    "text": "Name der Organisation",
                    "type": "string"
                  },
                  {
                    "linkId": "receiver.organization.streetAddressLine",
                    "text": "Strasse, Hausnummer, Postfach etc.",
                    "type": "string",
                    "repeats": true
                  },
                  {
                    "linkId": "receiver.organization.postalCode",
                    "text": "PLZ",
                    "type": "string"
                  },
                  {
                    "linkId": "receiver.organization.city",
                    "text": "Ort",
                    "type": "string"
                  },
                  {
                    "linkId": "receiver.organization.country",
                    "text": "Land",
                    "type": "string"
                  }
                ]
              }
            ]
          },
          {
            "linkId": "patient",
            "text": "Patient",
            "type": "group",
            "item": [
              {
                "linkId": "patient.familyName",
                "text": "Name",
                "type": "string"
              },
              {
                "linkId": "patient.maidenName",
                "text": "Ledigname",
                "type": "string"
              },
              {
                "linkId": "patient.givenName",
                "text": "Vorname",
                "type": "string"
              },
              {
                "linkId": "patient.localPid",
                "text": "Lokale Patienten-ID",
                "type": "string"
              },
              {
                "linkId": "patient.birthDate",
                "text": "Geburtsdatum",
                "type": "date"
              },
              {
                "linkId": "patient.gender",
                "text": "Geschlecht",
                "type": "choice",
                "answerOption": [
                  {
                    "valueCoding": {
                      "system": "http://hl7.org/fhir/administrative-gender",
                      "code": "male",
                      "display": "Männlich"
                    },
                    "initialSelected": true
                  },
                  {
                    "valueCoding": {
                      "system": "http://hl7.org/fhir/administrative-gender",
                      "code": "female",
                      "display": "Weiblich"
                    }
                  },
                  {
                    "valueCoding": {
                      "system": "http://hl7.org/fhir/administrative-gender",
                      "code": "other",
                      "display": "Anderes"
                    }
                  }
                ]
              },
              {
                "linkId": "patient.phone",
                "text": "Telefon",
                "type": "string"
              },
              {
                "linkId": "patient.email",
                "text": "E-Mail",
                "type": "string"
              },
              {
                "linkId": "patient.streetAddressLine",
                "text": "Strasse, Hausnummer, Postfach etc.",
                "type": "string",
                "repeats": true
              },
              {
                "linkId": "patient.postalCode",
                "text": "PLZ",
                "type": "string"
              },
              {
                "linkId": "patient.city",
                "text": "Ort",
                "type": "string"
              },
              {
                "linkId": "patient.country",
                "text": "Land",
                "type": "string"
              }
            ]
          },
          {
            "linkId": "sender",
            "text": "Absender",
            "type": "group",
            "required": true,
            "item": [
              {
                "linkId": "sender.author",
                "text": "Verantwortlicher",
                "type": "group",
                "required": true,
                "item": [
                  {
                    "linkId": "sender.author.practitioner",
                    "text": "Verantwortliche Person",
                    "type": "group",
                    "item": [
                      {
                        "linkId": "sender.author.practitioner.title",
                        "text": "Titel",
                        "type": "string"
                      },
                      {
                        "linkId": "sender.author.practitioner.familyName",
                        "text": "Name",
                        "type": "string"
                      },
                      {
                        "linkId": "sender.author.practitioner.givenName",
                        "text": "Vorname",
                        "type": "string"
                      },
                      {
                        "linkId": "sender.author.practitioner.gln",
                        "text": "GLN",
                        "type": "string"
                      },
                      {
                        "linkId": "sender.author.practitioner.phone",
                        "text": "Telefon",
                        "type": "string"
                      },
                      {
                        "linkId": "sender.author.practitioner.email",
                        "text": "E-Mail",
                        "type": "string"
                      }
                    ]
                  },
                  {
                    "linkId": "sender.author.organization",
                    "text": "Verantwortliche Organisation",
                    "type": "group",
                    "item": [
                      {
                        "linkId": "sender.author.organization.name",
                        "text": "Name der Organisation",
                        "type": "string"
                      },
                      {
                        "linkId": "sender.author.organization.streetAddressLine",
                        "text": "Strasse, Hausnummer, Postfach etc.",
                        "type": "string",
                        "repeats": true
                      },
                      {
                        "linkId": "sender.author.organization.postalCode",
                        "text": "PLZ",
                        "type": "string"
                      },
                      {
                        "linkId": "sender.author.organization.city",
                        "text": "Ort",
                        "type": "string"
                      },
                      {
                        "linkId": "sender.author.organization.country",
                        "text": "Land",
                        "type": "string"
                      }
                    ]
                  }
                ]
              },
              {
                "linkId": "sender.dataenterer",
                "text": "Erfasser",
                "type": "group",
                "item": [
                  {
                    "linkId": "sender.dataenterer.practitioner",
                    "text": "Erfassende Person",
                    "type": "group",
                    "item": [
                      {
                        "linkId": "sender.dataenterer.practitioner.familyName",
                        "text": "Name",
                        "type": "string"
                      },
                      {
                        "linkId": "sender.dataenterer.practitioner.givenName",
                        "text": "Vorname",
                        "type": "string"
                      },
                      {
                        "linkId": "sender.dataenterer.practitioner.phone",
                        "text": "Telefon",
                        "type": "string"
                      },
                      {
                        "linkId": "sender.dataenterer.practitioner.email",
                        "text": "E-Mail",
                        "type": "string"
                      }
                    ]
                  }
                ]
              }
            ]
          },
          {
            "linkId": "receiverCopies",
            "text": "Kopieempfänger",
            "type": "group",
            "item": [
              {
                "linkId": "receiverCopy",
                "text": "Kopieempfangende Organisation oder Person",
                "type": "group",
                "repeats": true,
                "item": [
                  {
                    "linkId": "receiverCopy.organization.name",
                    "text": "Name der Organisation",
                    "type": "string"
                  },
                  {
                    "linkId": "receiverCopy.title",
                    "text": "Titel",
                    "type": "string"
                  },
                  {
                    "linkId": "receiverCopy.familyName",
                    "text": "Name",
                    "type": "string"
                  },
                  {
                    "linkId": "receiverCopy.givenName",
                    "text": "Vorname",
                    "type": "string"
                  },
                  {
                    "linkId": "receiverCopy.phone",
                    "text": "Telefon",
                    "type": "string"
                  },
                  {
                    "linkId": "receiverCopy.email",
                    "text": "E-Mail",
                    "type": "string"
                  },
                  {
                    "linkId": "receiverCopy.streetAddressLine",
                    "text": "Strasse, Hausnummer, Postfach etc.",
                    "type": "string",
                    "repeats": true
                  },
                  {
                    "linkId": "receiverCopy.postalCode",
                    "text": "PLZ",
                    "type": "string"
                  },
                  {
                    "linkId": "receiverCopy.city",
                    "text": "Ort",
                    "type": "string"
                  },
                  {
                    "linkId": "receiverCopy.country",
                    "text": "Land",
                    "type": "string"
                  }
                ]
              }
            ]
          },
          {
            "linkId": "hematology",
            "text": "Hematology",
            "type": "group",
            "item": [
              {
                "linkId": "hemato-subset",
                "text": "Hämatologie Subset",
                "type": "choice",
                "repeats": true,
                "answerOption": [
                  {
                    "valueCoding": {
                      "system": "http://loinc.org",
                      "code": "24360-0",
                      "display": "Hemoglobin and Hematocrit panel - Blood"
                    }
                  },
                  {
                    "valueCoding": {
                      "system": "http://loinc.org",
                      "code": "43113-0",
                      "display": "Hemoglobin electrophoresis panel in Blood"
                    }
                  },
                  {
                    "valueCoding": {
                      "system": "http://loinc.org",
                      "code": "57021-8",
                      "display": "CBC W Auto Differential panel - Blood"
                    }
                  },
                  {
                    "valueCoding": {
                      "system": "http://loinc.org",
                      "code": "58410-2",
                      "display": "CBC panel - Blood by Automated count"
                    }
                  },
                  {
                    "valueCoding": {
                      "system": "http://loinc.org",
                      "code": "57023-4",
                      "display": "Auto Differential panel - Blood"
                    }
                  }
                ]
              }
            ]
          },
          {
            "linkId": "coagulation",
            "text": "Coagulation",
            "type": "group",
            "item": [
              {
                "linkId": "d-dimer",
                "text": "D-Dimer",
                "type": "choice",
                "repeats": true,
                "answerOption": [
                  {
                    "valueCoding": {
                      "system": "http://loinc.org",
                      "code": "55398-2",
                      "display": "Short Fibrin D-dimer FEU and DDU panel - Platelet poor plasma"
                    }
                  }
                ]
              }
            ]
          },
          {
            "linkId": "cc",
            "text": "clinical chemistry",
            "type": "group",
            "item": [
              {
                "linkId": "crp",
                "text": "CRP",
                "type": "choice",
                "repeats": true,
                "answerOption": [
                  {
                    "valueCoding": {
                      "system": "http://loinc.org",
                      "code": "1988-5",
                      "display": "C reactive protein [Mass/Volume] in Serum or Plasma"
                    },
                    "initialSelected": true
                  },
                  {
                    "valueCoding": {
                      "system": "http://loinc.org",
                      "code": "76485-2",
                      "display": "C reactive protein [Moles/volume] in Serum or Plasma"
                    }
                  },
                  {
                    "valueCoding": {
                      "system": "http://loinc.org",
                      "code": "30522-7",
                      "display": "C reactive protein [Mass/volume] in Serum or Plasma by High sensitivity method"
                    }
                  },
                  {
                    "valueCoding": {
                      "system": "http://loinc.org",
                      "code": "76486-0",
                      "display": "C reactive protein [Moles/volume] in Serum or Plasma by High sensitivity method"
                    }
                  }
                ]
              }
            ]
          },
          {
            "linkId": "consent",
            "definition": "http://fhir.ch/ig/ch-lab-order/StructureDefinition/ch-lab-order-servicerequest#ServiceRequest.supportingInfo",
            "text": "Einverständniserklärung",
            "type": "group",
            "item": [
              {
                "linkId": "consent.treatment",
                "text": "Einverständnis des Patienten zur Behandlung",
                "type": "string"
              },
              {
                "linkId": "consent.patientPrivacy",
                "text": "Einverständnis des Patienten zum Datenschutz",
                "type": "string"
              },
              {
                "linkId": "consent.research",
                "text": "Einverständnis des Patienten zur Forschung",
                "type": "string"
              },
              {
                "linkId": "consent.advancedCareDirective",
                "text": "Patientenverfügung",
                "type": "string"
              }
            ]
          },
          {
            "linkId": "coverage",
            "definition": "http://fhir.ch/ig/ch-lab-order/StructureDefinition/ch-lab-order-servicerequest#ServiceRequest.insurance",
            "text": "Kostenträger",
            "type": "group",
            "item": [
              {
                "linkId": "coverage.uvg",
                "text": "Unfallversicherung (nach UVG)",
                "type": "string"
              },
              {
                "linkId": "coverage.kvg",
                "text": "Grundversicherung (nach KVG)",
                "type": "string"
              },
              {
                "linkId": "coverage.vvg",
                "text": "Zusatzversicherung (nach VVG)",
                "type": "string"
              },
              {
                "linkId": "coverage.vvgOther",
                "text": "Andere (nach VVG)",
                "type": "string"
              }
            ]
          },
          {
            "linkId": "previousResult",
            "definition": "http://fhir.ch/ig/ch-lab-order/StructureDefinition/ch-lab-order-servicerequest#ServiceRequest.supportingInfo",
            "text": "Vorheriges Untersuchungsresultat",
            "type": "group",
            "item": [
              {
                "linkId": "previousResult.result",
                "text": "Untersuchungsresultat",
                "type": "string",
                "repeats": true
              }
            ]
          }
        ]
      }
    },
    {
      "fullUrl": "http://example.com/fhir/QuestionnaireResponse/1-tvt",
      "resource": {
        "resourceType": "QuestionnaireResponse",
        "id": "1-tvt",
        "meta": {
          "versionId": "1",
          "lastUpdated": "2019-04-01T20:17:53.340+00:00",
          "profile": [
            "http://fhir.ch/ig/ch-orf/StructureDefinition/ch-orf-questionnaireresponse"
          ]
        },
        "text": {
          "status": "generated",
          "div": "<div xmlns=\"http://www.w3.org/1999/xhtml\"><p><b>Generated Narrative</b></p><p><b>questionnaire</b>: <a href=\"http://fhir.ch/ig/ch-lab-order/Questionnaire/1-tvt\">http://fhir.ch/ig/ch-lab-order/Questionnaire/1-tvt</a></p><p><b>status</b>: completed</p><blockquote><p><b>item</b></p><p><b>linkId</b>: order</p><p><b>text</b>: Auftrag</p><blockquote><p><b>item</b></p><p><b>linkId</b>: order.placerOrderIdentifier</p><p><b>text</b>: Auftragsnummer des Auftraggebers</p></blockquote><blockquote><p><b>item</b></p><p><b>linkId</b>: order.placerOrderIdentifierDomain</p><p><b>text</b>: Identifier Domain der Auftragsnummer des Auftraggebers</p></blockquote><blockquote><p><b>item</b></p><p><b>linkId</b>: order.precedentDocumentIdentifier</p><p><b>text</b>: Identifier des Vorgängerdokuments</p></blockquote><blockquote><p><b>item</b></p><p><b>linkId</b>: order.notificationContactDocument</p><p><b>text</b>: Dringender Benachrichtigungskontakt für dieses Dokument</p></blockquote><blockquote><p><b>item</b></p><p><b>linkId</b>: order.notificationContactDocumentResponse</p><p><b>text</b>: Dringender Benachrichtigungskontakt für die Antwort auf dieses Dokument</p></blockquote><blockquote><p><b>item</b></p><p><b>linkId</b>: order.priority</p><p><b>text</b>: Auftragspriorität</p></blockquote></blockquote><blockquote><p><b>item</b></p><p><b>linkId</b>: receiver</p><p><b>text</b>: Empfänger</p><blockquote><p><b>item</b></p><p><b>linkId</b>: receiver.practitioner</p><p><b>text</b>: Empfangende Person</p></blockquote><blockquote><p><b>item</b></p><p><b>linkId</b>: receiver.organization</p><p><b>text</b>: Empfangende Organisation</p></blockquote></blockquote><blockquote><p><b>item</b></p><p><b>linkId</b>: patient</p><p><b>text</b>: Patient</p><blockquote><p><b>item</b></p><p><b>linkId</b>: patient.familyName</p><p><b>text</b>: Name</p></blockquote><blockquote><p><b>item</b></p><p><b>linkId</b>: patient.maidenName</p><p><b>text</b>: Ledigname</p></blockquote><blockquote><p><b>item</b></p><p><b>linkId</b>: patient.givenName</p><p><b>text</b>: Vorname</p></blockquote><blockquote><p><b>item</b></p><p><b>linkId</b>: patient.localPid</p><p><b>text</b>: Lokale Patienten-ID</p></blockquote><blockquote><p><b>item</b></p><p><b>linkId</b>: patient.birthDate</p><p><b>text</b>: Geburtsdatum</p></blockquote><blockquote><p><b>item</b></p><p><b>linkId</b>: patient.gender</p><p><b>text</b>: Geschlecht</p></blockquote><blockquote><p><b>item</b></p><p><b>linkId</b>: patient.phone</p><p><b>text</b>: Telefon</p></blockquote><blockquote><p><b>item</b></p><p><b>linkId</b>: patient.email</p><p><b>text</b>: E-Mail</p></blockquote><blockquote><p><b>item</b></p><p><b>linkId</b>: patient.streetAddressLine</p><p><b>text</b>: Strasse, Hausnummer, Postfach etc.</p></blockquote><blockquote><p><b>item</b></p><p><b>linkId</b>: patient.postalCode</p><p><b>text</b>: PLZ</p></blockquote><blockquote><p><b>item</b></p><p><b>linkId</b>: patient.city</p><p><b>text</b>: Ort</p></blockquote><blockquote><p><b>item</b></p><p><b>linkId</b>: patient.country</p><p><b>text</b>: Land</p></blockquote></blockquote><blockquote><p><b>item</b></p><p><b>linkId</b>: sender</p><p><b>text</b>: Absender</p><blockquote><p><b>item</b></p><p><b>linkId</b>: sender.author</p><p><b>text</b>: Verantwortlicher</p></blockquote><blockquote><p><b>item</b></p><p><b>linkId</b>: sender.dataenterer</p><p><b>text</b>: Erfasser</p></blockquote></blockquote><blockquote><p><b>item</b></p><p><b>linkId</b>: receiverCopies</p><p><b>text</b>: Kopieempfänger</p><blockquote><p><b>item</b></p><p><b>linkId</b>: receiverCopy</p><p><b>text</b>: Kopieempfangende Organisation oder Person</p></blockquote><blockquote><p><b>item</b></p><p><b>linkId</b>: receiverCopy</p><p><b>text</b>: Kopieempfangende Organisation oder Person</p></blockquote></blockquote><blockquote><p><b>item</b></p><p><b>linkId</b>: hematology</p><p><b>text</b>: Hematology</p><blockquote><p><b>item</b></p><p><b>linkId</b>: hemato-subset</p><p><b>text</b>: Hämatologie Subset</p></blockquote></blockquote><blockquote><p><b>item</b></p><p><b>linkId</b>: coagulation</p><p><b>text</b>: Coagulation</p><blockquote><p><b>item</b></p><p><b>linkId</b>: d-dimer</p><p><b>text</b>: D-Dimer</p></blockquote></blockquote><blockquote><p><b>item</b></p><p><b>linkId</b>: cc</p><p><b>text</b>: clinical chemistry</p><blockquote><p><b>item</b></p><p><b>linkId</b>: crp</p><p><b>text</b>: CRP</p></blockquote></blockquote></div>"
        },
        "questionnaire": "http://fhir.ch/ig/ch-lab-order/Questionnaire/1-tvt",
        "status": "completed",
        "item": [
          {
            "linkId": "order",
            "text": "Auftrag",
            "item": [
              {
                "linkId": "order.placerOrderIdentifier",
                "text": "Auftragsnummer des Auftraggebers",
                "answer": [
                  {
                    "valueString": "123"
                  }
                ]
              },
              {
                "linkId": "order.placerOrderIdentifierDomain",
                "text": "Identifier Domain der Auftragsnummer des Auftraggebers",
                "answer": [
                  {
                    "valueString": "urn:oid:1.3.4.5.6.7"
                  }
                ]
              },
              {
                "linkId": "order.precedentDocumentIdentifier",
                "text": "Identifier des Vorgängerdokuments",
                "answer": [
                  {
                    "valueString": "1622f2fb-6ba3-4532-9aed-35b158def187"
                  }
                ]
              },
              {
                "linkId": "order.notificationContactDocument",
                "text": "Dringender Benachrichtigungskontakt für dieses Dokument",
                "item": [
                  {
                    "linkId": "order.notificationContactDocument.practitioner",
                    "text": "Zu benachrichtigende Person",
                    "item": [
                      {
                        "linkId": "order.notificationContactDocument.practitioner.title",
                        "text": "Titel",
                        "answer": [
                          {
                            "valueString": "Dr. med."
                          }
                        ]
                      },
                      {
                        "linkId": "order.notificationContactDocument.practitioner.familyName",
                        "text": "Name",
                        "answer": [
                          {
                            "valueString": "Erlenmeyer"
                          }
                        ]
                      },
                      {
                        "linkId": "order.notificationContactDocument.practitioner.givenName",
                        "text": "Vorname",
                        "answer": [
                          {
                            "valueString": "Eva"
                          }
                        ]
                      },
                      {
                        "linkId": "order.notificationContactDocument.practitioner.phone",
                        "text": "Telefon",
                        "answer": [
                          {
                            "valueString": "033 444 55 66"
                          }
                        ]
                      },
                      {
                        "linkId": "order.notificationContactDocument.practitioner.email",
                        "text": "E-Mail",
                        "answer": [
                          {
                            "valueString": "eva.erlenmeyer@labor-pipette.ch"
                          }
                        ]
                      }
                    ]
                  }
                ]
              },
              {
                "linkId": "order.notificationContactDocumentResponse",
                "text": "Dringender Benachrichtigungskontakt für die Antwort auf dieses Dokument",
                "item": [
                  {
                    "linkId": "order.notificationContactDocumentResponse.practitioner",
                    "text": "Zu benachrichtigende Person",
                    "item": [
                      {
                        "linkId": "order.notificationContactDocumentResponse.practitioner.title",
                        "text": "Titel",
                        "answer": [
                          {
                            "valueString": "Dr. med."
                          }
                        ]
                      },
                      {
                        "linkId": "order.notificationContactDocumentResponse.practitioner.familyName",
                        "text": "Name",
                        "answer": [
                          {
                            "valueString": "Mustermann"
                          }
                        ]
                      },
                      {
                        "linkId": "order.notificationContactDocumentResponse.practitioner.givenName",
                        "text": "Vorname",
                        "answer": [
                          {
                            "valueString": "Marc"
                          }
                        ]
                      },
                      {
                        "linkId": "order.notificationContactDocumentResponse.practitioner.phone",
                        "text": "Telefon",
                        "answer": [
                          {
                            "valueString": "033 444 55 66"
                          }
                        ]
                      },
                      {
                        "linkId": "order.notificationContactDocumentResponse.practitioner.email",
                        "text": "E-Mail",
                        "answer": [
                          {
                            "valueString": "peter.presto@arztpraxis.ch"
                          }
                        ]
                      }
                    ]
                  }
                ]
              },
              {
                "linkId": "order.priority",
                "text": "Auftragspriorität",
                "answer": [
                  {
                    "valueCoding": {
                      "system": "http://hl7.org/fhir/request-priority",
                      "code": "routine"
                    }
                  }
                ]
              }
            ]
          },
          {
            "linkId": "receiver",
            "text": "Empfänger",
            "item": [
              {
                "linkId": "receiver.practitioner",
                "text": "Empfangende Person",
                "item": [
                  {
                    "linkId": "receiver.practitioner.title",
                    "text": "Titel",
                    "answer": [
                      {
                        "valueString": "Dr. med."
                      }
                    ]
                  },
                  {
                    "linkId": "receiver.practitioner.familyName",
                    "text": "Name",
                    "answer": [
                      {
                        "valueString": "Erlenmeyer"
                      }
                    ]
                  },
                  {
                    "linkId": "receiver.practitioner.givenName",
                    "text": "Vorname",
                    "answer": [
                      {
                        "valueString": "Eva"
                      }
                    ]
                  },
                  {
                    "linkId": "receiver.practitioner.gln",
                    "text": "GLN",
                    "answer": [
                      {
                        "valueString": "7601000050703"
                      }
                    ]
                  },
                  {
                    "linkId": "receiver.practitioner.phone",
                    "text": "Telefon",
                    "answer": [
                      {
                        "valueString": "+41322552525"
                      }
                    ]
                  },
                  {
                    "linkId": "receiver.practitioner.email",
                    "text": "E-Mail",
                    "answer": [
                      {
                        "valueString": "eva.erlenmeyer@labor-pipette.ch"
                      }
                    ]
                  }
                ]
              },
              {
                "linkId": "receiver.organization",
                "text": "Empfangende Organisation",
                "item": [
                  {
                    "linkId": "receiver.organization.name",
                    "text": "Name der Organisation",
                    "answer": [
                      {
                        "valueString": "Labor Pipette"
                      }
                    ]
                  },
                  {
                    "linkId": "receiver.organization.streetAddressLine",
                    "text": "Strasse, Hausnummer, Postfach etc.",
                    "answer": [
                      {
                        "valueString": "Laborstrasse 23"
                      },
                      {
                        "valueString": "Postfach 44"
                      }
                    ]
                  },
                  {
                    "linkId": "receiver.organization.postalCode",
                    "text": "PLZ",
                    "answer": [
                      {
                        "valueString": "4600"
                      }
                    ]
                  },
                  {
                    "linkId": "receiver.organization.city",
                    "text": "Ort",
                    "answer": [
                      {
                        "valueString": "Olten"
                      }
                    ]
                  },
                  {
                    "linkId": "receiver.organization.country",
                    "text": "Land",
                    "answer": [
                      {
                        "valueString": "Schweiz"
                      }
                    ]
                  }
                ]
              }
            ]
          },
          {
            "linkId": "patient",
            "text": "Patient",
            "item": [
              {
                "linkId": "patient.familyName",
                "text": "Name",
                "answer": [
                  {
                    "valueString": "Guggindieluft"
                  }
                ]
              },
              {
                "linkId": "patient.maidenName",
                "text": "Ledigname",
                "answer": [
                  {
                    "valueString": "Bering"
                  }
                ]
              },
              {
                "linkId": "patient.givenName",
                "text": "Vorname",
                "answer": [
                  {
                    "valueString": "Hans"
                  }
                ]
              },
              {
                "linkId": "patient.localPid",
                "text": "Lokale Patienten-ID",
                "answer": [
                  {
                    "valueString": "11.22.33.5678"
                  }
                ]
              },
              {
                "linkId": "patient.birthDate",
                "text": "Geburtsdatum",
                "answer": [
                  {
                    "valueDate": "1981-01-01"
                  }
                ]
              },
              {
                "linkId": "patient.gender",
                "text": "Geschlecht",
                "answer": [
                  {
                    "valueCoding": {
                      "system": "http://hl7.org/fhir/administrative-gender",
                      "code": "male"
                    }
                  }
                ]
              },
              {
                "linkId": "patient.phone",
                "text": "Telefon",
                "answer": [
                  {
                    "valueString": "079 979 79 79"
                  }
                ]
              },
              {
                "linkId": "patient.email",
                "text": "E-Mail",
                "answer": [
                  {
                    "valueString": "erika@musterfrau.ch"
                  }
                ]
              },
              {
                "linkId": "patient.streetAddressLine",
                "text": "Strasse, Hausnummer, Postfach etc.",
                "answer": [
                  {
                    "valueString": "Musterweg"
                  },
                  {
                    "valueString": "6a"
                  }
                ]
              },
              {
                "linkId": "patient.postalCode",
                "text": "PLZ",
                "answer": [
                  {
                    "valueString": "8000"
                  }
                ]
              },
              {
                "linkId": "patient.city",
                "text": "Ort",
                "answer": [
                  {
                    "valueString": "Zürich"
                  }
                ]
              },
              {
                "linkId": "patient.country",
                "text": "Land",
                "answer": [
                  {
                    "valueString": "Schweiz"
                  }
                ]
              }
            ]
          },
          {
            "linkId": "sender",
            "text": "Absender",
            "item": [
              {
                "linkId": "sender.author",
                "text": "Verantwortlicher",
                "item": [
                  {
                    "linkId": "sender.author.practitioner",
                    "text": "Verantwortliche Person",
                    "item": [
                      {
                        "linkId": "sender.author.practitioner.title",
                        "text": "Titel",
                        "answer": [
                          {
                            "valueString": "Dr. med."
                          }
                        ]
                      },
                      {
                        "linkId": "sender.author.practitioner.familyName",
                        "text": "Name",
                        "answer": [
                          {
                            "valueString": "Mustermann"
                          }
                        ]
                      },
                      {
                        "linkId": "sender.author.practitioner.givenName",
                        "text": "Vorname",
                        "answer": [
                          {
                            "valueString": "Marc"
                          }
                        ]
                      },
                      {
                        "linkId": "sender.author.practitioner.gln",
                        "text": "GLN",
                        "answer": [
                          {
                            "valueString": "7601000034321"
                          }
                        ]
                      },
                      {
                        "linkId": "sender.author.practitioner.phone",
                        "text": "Telefon",
                        "answer": [
                          {
                            "valueString": "033 333 22 11"
                          }
                        ]
                      },
                      {
                        "linkId": "sender.author.practitioner.email",
                        "text": "E-Mail",
                        "answer": [
                          {
                            "valueString": "marc.mustermann@gruppenpraxis.ch"
                          }
                        ]
                      }
                    ]
                  },
                  {
                    "linkId": "sender.author.organization",
                    "text": "Verantwortliche Organisation",
                    "item": [
                      {
                        "linkId": "sender.author.organization.name",
                        "text": "Name der Organisation",
                        "answer": [
                          {
                            "valueString": "Gruppenpraxis"
                          }
                        ]
                      },
                      {
                        "linkId": "sender.author.organization.streetAddressLine",
                        "text": "Strasse, Hausnummer, Postfach etc.",
                        "answer": [
                          {
                            "valueString": "Gerbergasse 12"
                          },
                          {
                            "valueString": "Postfach 144"
                          }
                        ]
                      },
                      {
                        "linkId": "sender.author.organization.postalCode",
                        "text": "PLZ",
                        "answer": [
                          {
                            "valueString": "4600"
                          }
                        ]
                      },
                      {
                        "linkId": "sender.author.organization.city",
                        "text": "Ort",
                        "answer": [
                          {
                            "valueString": "Olten"
                          }
                        ]
                      },
                      {
                        "linkId": "sender.author.organization.country",
                        "text": "Land",
                        "answer": [
                          {
                            "valueString": "Schweiz"
                          }
                        ]
                      }
                    ]
                  }
                ]
              },
              {
                "linkId": "sender.dataenterer",
                "text": "Erfasser",
                "item": [
                  {
                    "linkId": "sender.dataenterer.practitioner",
                    "text": "Erfassende Person",
                    "item": [
                      {
                        "linkId": "sender.dataenterer.practitioner.familyName",
                        "text": "Name",
                        "answer": [
                          {
                            "valueString": "Mustermann"
                          }
                        ]
                      },
                      {
                        "linkId": "sender.dataenterer.practitioner.givenName",
                        "text": "Vorname",
                        "answer": [
                          {
                            "valueString": "Marc"
                          }
                        ]
                      },
                      {
                        "linkId": "sender.dataenterer.practitioner.phone",
                        "text": "Telefon",
                        "answer": [
                          {
                            "valueString": "033 333 22 11"
                          }
                        ]
                      },
                      {
                        "linkId": "sender.dataenterer.practitioner.email",
                        "text": "E-Mail",
                        "answer": [
                          {
                            "valueString": "marc.mustermann@gruppenpraxis.ch"
                          }
                        ]
                      }
                    ]
                  }
                ]
              }
            ]
          },
          {
            "linkId": "receiverCopies",
            "text": "Kopieempfänger",
            "item": [
              {
                "linkId": "receiverCopy",
                "text": "Kopieempfangende Organisation oder Person",
                "item": [
                  {
                    "linkId": "receiverCopy.organization.name",
                    "text": "Name der Organisation",
                    "answer": [
                      {
                        "valueString": "Praxis Seeblick"
                      }
                    ]
                  },
                  {
                    "linkId": "receiverCopy.title",
                    "text": "Titel",
                    "answer": [
                      {
                        "valueString": "Dr. med."
                      }
                    ]
                  },
                  {
                    "linkId": "receiverCopy.familyName",
                    "text": "Name",
                    "answer": [
                      {
                        "valueString": "Meier"
                      }
                    ]
                  },
                  {
                    "linkId": "receiverCopy.givenName",
                    "text": "Vorname",
                    "answer": [
                      {
                        "valueString": "Sabine"
                      }
                    ]
                  },
                  {
                    "linkId": "receiverCopy.phone",
                    "text": "Telefon",
                    "answer": [
                      {
                        "valueString": "044 333 22 11"
                      }
                    ]
                  },
                  {
                    "linkId": "receiverCopy.email",
                    "text": "E-Mail",
                    "answer": [
                      {
                        "valueString": "sabine.meier@praxisseeblick.ch"
                      }
                    ]
                  }
                ]
              },
              {
                "linkId": "receiverCopy",
                "text": "Kopieempfangende Organisation oder Person",
                "item": [
                  {
                    "linkId": "receiverCopy.familyName",
                    "text": "Name",
                    "answer": [
                      {
                        "valueString": "Meier"
                      }
                    ]
                  },
                  {
                    "linkId": "receiverCopy.givenName",
                    "text": "Vorname",
                    "answer": [
                      {
                        "valueString": "Sabine"
                      }
                    ]
                  },
                  {
                    "linkId": "receiverCopy.phone",
                    "text": "Telefon",
                    "answer": [
                      {
                        "valueString": "044 333 22 11"
                      }
                    ]
                  },
                  {
                    "linkId": "receiverCopy.email",
                    "text": "E-Mail",
                    "answer": [
                      {
                        "valueString": "sabine.meier@praxis.ch"
                      }
                    ]
                  },
                  {
                    "linkId": "receiverCopy.streetAddressLine",
                    "text": "Strasse, Hausnummer, Postfach etc.",
                    "answer": [
                      {
                        "valueString": "Musterweg"
                      },
                      {
                        "valueString": "6a"
                      }
                    ]
                  },
                  {
                    "linkId": "receiverCopy.postalCode",
                    "text": "PLZ",
                    "answer": [
                      {
                        "valueString": "6330"
                      }
                    ]
                  },
                  {
                    "linkId": "receiverCopy.city",
                    "text": "Ort",
                    "answer": [
                      {
                        "valueString": "Cham"
                      }
                    ]
                  },
                  {
                    "linkId": "receiverCopy.country",
                    "text": "Land",
                    "answer": [
                      {
                        "valueString": "Schweiz"
                      }
                    ]
                  }
                ]
              }
            ]
          },
          {
            "linkId": "hematology",
            "text": "Hematology",
            "item": [
              {
                "linkId": "hemato-subset",
                "text": "Hämatologie Subset",
                "answer": [
                  {
                    "valueCoding": {
                      "system": "http://loinc.org",
                      "code": "24360-0",
                      "display": "Hemoglobin and Hematocrit panel - Blood"
                    }
                  },
                  {
                    "valueCoding": {
                      "system": "http://loinc.org",
                      "code": "43113-0",
                      "display": "Hemoglobin electrophoresis panel in Blood"
                    }
                  },
                  {
                    "valueCoding": {
                      "system": "http://loinc.org",
                      "code": "57021-8",
                      "display": "CBC W Auto Differential panel - Blood"
                    }
                  },
                  {
                    "valueCoding": {
                      "system": "http://loinc.org",
                      "code": "58410-2",
                      "display": "CBC panel - Blood by Automated count"
                    }
                  },
                  {
                    "valueCoding": {
                      "system": "http://loinc.org",
                      "code": "57023-4",
                      "display": "Auto Differential panel - Blood"
                    }
                  }
                ]
              }
            ]
          },
          {
            "linkId": "coagulation",
            "text": "Coagulation",
            "item": [
              {
                "linkId": "d-dimer",
                "text": "D-Dimer",
                "answer": [
                  {
                    "valueCoding": {
                      "system": "http://loinc.org",
                      "code": "55398-2",
                      "display": "Short Fibrin D-dimer FEU and DDU panel - Platelet poor plasma"
                    }
                  }
                ]
              }
            ]
          },
          {
            "linkId": "cc",
            "text": "clinical chemistry",
            "item": [
              {
                "linkId": "crp",
                "text": "CRP",
                "answer": [
                  {
                    "valueCoding": {
                      "system": "http://loinc.org",
                      "code": "1988-5",
                      "display": "C reactive protein [Mass/volume] in Serum or Plasma"
                    }
                  }
                ]
              }
            ]
          }
        ]
      }
    },
    {
      "fullUrl": "http://example.com/fhir/ServiceRequest/1-tvt",
      "resource": {
        "resourceType": "ServiceRequest",
        "id": "1-tvt",
        "meta": {
          "profile": [
            "http://fhir.ch/ig/ch-orf/StructureDefinition/ch-orf-servicerequest"
          ]
        },
        "text": {
          "status": "generated",
          "div": "<div xmlns=\"http://www.w3.org/1999/xhtml\"><p><b>Generated Narrative</b></p><p><b>identifier</b>: Placer Identifier: 123, Filler Identifier: 456</p><p><b>status</b>: active</p><p><b>intent</b>: original-order</p><p><b>category</b>: <span title=\"Codes: {http://snomed.info/sct 108252007}\">Laboratory procedure (procedure)</span></p><p><b>priority</b>: urgent</p><p><b>subject</b>: <a href=\"#Patient_HansGuggindieluft\">See above (Patient/HansGuggindieluft)</a></p><p><b>requester</b>: <a href=\"#PractitionerRole_MarcMustermannArztpraxis\">See above (PractitionerRole/MarcMustermannArztpraxis)</a></p><p><b>reasonCode</b>: <span title=\"Codes: {http://snomed.info/sct 404223003}\">Deep venous thrombosis of lower extremity</span></p><p><b>insurance</b>: <a href=\"Coverage-HealthInsuranceCard.html\">A human-readable rendering of the European Health Insurance CardGenerated Summary: id: A123456780; status: active; <span title=\"Codes: {http://terminology.hl7.org/CodeSystem/v3-ActCode EHCPOL}\">extended healthcare</span>; period: ?ngen-2? --&gt; 2012-03-17</a></p><p><b>specimen</b>: </p><ul><li><a href=\"Specimen-serum.html\">Serum specimen. Generated Summary: id: 48736-12345-75465; id: 4e88a-12345-dd888; status: available; <span title=\"Codes: {http://snomed.info/sct 119364003}\">Serum specimen (specimen)</span></a></li><li><a href=\"Specimen-blood.html\">Generated Summary: status: available; <span title=\"Codes: {http://snomed.info/sct 119297000}\">Blood sample</span></a></li></ul></div>"
        },
        "identifier": [
          {
            "type": {
              "coding": [
                {
                  "system": "http://terminology.hl7.org/CodeSystem/v2-0203",
                  "code": "PLAC",
                  "display": "Placer Identifier"
                }
              ]
            },
            "system": "urn:oid:1.3.4.5.6.7",
            "value": "123"
          },
          {
            "type": {
              "coding": [
                {
                  "system": "http://terminology.hl7.org/CodeSystem/v2-0203",
                  "code": "FILL",
                  "display": "Filler Identifier"
                }
              ]
            },
            "system": "urn:oid:7.8.9.10.11",
            "value": "456"
          }
        ],
        "status": "active",
        "intent": "original-order",
        "category": [
          {
            "coding": [
              {
                "system": "http://snomed.info/sct",
                "code": "108252007"
              }
            ],
            "text": "Laboratory procedure (procedure)"
          }
        ],
        "priority": "urgent",
        "subject": {
          "reference": "Patient/HansGuggindieluft"
        },
        "requester": {
          "reference": "PractitionerRole/MarcMustermannArztpraxis"
        },
        "reasonCode": [
          {
            "coding": [
              {
                "system": "http://snomed.info/sct",
                "code": "404223003"
              }
            ],
            "text": "Deep venous thrombosis of lower extremity"
          }
        ],
        "insurance": [
          {
            "reference": "Coverage/HealthInsuranceCard"
          }
        ],
        "specimen": [
          {
            "reference": "Specimen/serum",
            "display": "Serum specimen"
          },
          {
            "reference": "Specimen/blood"
          }
        ]
      }
    }
  ]
}