{
  "resourceType": "Bundle",
  "id": "5-biol-monit",
  "meta": {
    "versionId": "1",
    "lastUpdated": "2019-04-01T20:18:41.341+00:00",
    "profile": [
      "http://fhir.ch/ig/ch-orf/StructureDefinition/ch-orf-document"
    ]
  },
  "identifier": {
    "system": "urn:ietf:rfc:3986",
    "value": "urn:uuid:26d3dff7-ab05-4737-a49c-5eccd3359505"
  },
  "type": "document",
  "timestamp": "2019-04-01T20:18:41.341+00:00",
  "entry": [
    {
      "fullUrl": "http://example.com/fhir/Composition/5-biol-monit",
      "resource": {
        "resourceType": "Composition",
        "id": "5-biol-monit",
        "meta": {
          "versionId": "1",
          "lastUpdated": "2021-02-18T17:04:38.520+00:00",
          "profile": [
            "http://fhir.ch/ig/ch-orf/StructureDefinition/ch-orf-composition"
          ]
        },
        "text": {
          "status": "extensions",
          "div": "<div xmlns=\"http://www.w3.org/1999/xhtml\"><p><b>Generated Narrative</b></p><blockquote><p><b>EPR Data Enterer</b></p><p><b>value</b>: <a href=\"#PractitionerRole_PauloPorcelliniSuva\">See above (PractitionerRole/PauloPorcelliniSuva)</a></p></blockquote><p><b>CH ORF Receiver</b>: <a href=\"PractitionerRole-EvaErlenmeyerLaborPipette.html\">Generated Summary: </a></p><p><b>CH ORF Copy Receiver</b>: <a href=\"Organization-Gruppenpraxis.html\">Generated Summary: id: 7601000241111; name: Gruppenpraxis Olten; Phone: +41555556677, info@gruppenpraxis.ch, http://www.gruppenpraxis.ch</a></p><p><b>CH ORF Copy Receiver</b>: <a href=\"Organization-SpeiserRails.html\">Generated Summary: id: CHE-108.444.179; Phone: +41412345566, info@speiser-rails.ch, http://www.speiser-rails.ch</a></p><p><b>status</b>: final</p><p><b>type</b>: <span title=\"Codes: {http://snomed.info/sct 721965002}\">Laboratory order (record artifact)</span></p><p><b>category</b>: <span title=\"Codes: {http://snomed.info/sct 721963009}\">Order (record artifact)</span></p><p><b>date</b>: Mar 31, 2019, 11:46:09 AM</p><p><b>author</b>: <a href=\"#PractitionerRole_PauloPorcelliniSuva\">See above (PractitionerRole/PauloPorcelliniSuva)</a></p><p><b>title</b>: Referral 5-biol-monit</p></div>"
        },
        "extension": [
          {
            "url": "http://fhir.ch/ig/ch-core/StructureDefinition/ch-ext-epr-dataenterer",
            "extension": [
              {
                "url": "enterer",
                "valueReference": {
                  "reference": "PractitionerRole/PauloPorcelliniSuva"
                }
              }
            ]
          },
          {
            "url": "http://fhir.ch/ig/ch-orf/StructureDefinition/ch-orf-receiver",
            "valueReference": {
              "reference": "PractitionerRole/EvaErlenmeyerLaborPipette"
            }
          },
          {
            "url": "http://fhir.ch/ig/ch-orf/StructureDefinition/ch-orf-copyreceiver",
            "valueReference": {
              "reference": "Organization/Gruppenpraxis"
            }
          },
          {
            "url": "http://fhir.ch/ig/ch-orf/StructureDefinition/ch-orf-copyreceiver",
            "valueReference": {
              "reference": "Organization/SpeiserRails"
            }
          }
        ],
        "status": "final",
        "type": {
          "coding": [
            {
              "system": "http://snomed.info/sct",
              "code": "721965002",
              "display": "Laboratory order (record artifact)"
            }
          ]
        },
        "category": [
          {
            "coding": [
              {
                "system": "http://snomed.info/sct",
                "code": "721963009",
                "display": "Order (record artifact)"
              }
            ]
          }
        ],
        "subject": {
          "reference": "Patient/BeatBorer"
        },
        "date": "2019-03-31T11:46:09+02:00",
        "author": [
          {
            "reference": "PractitionerRole/PauloPorcelliniSuva"
          }
        ],
        "title": "Referral 5-biol-monit",
        "section": [
          {
            "title": "Order-Referral-Form 5-biol-monit",
            "code": {
              "coding": [
                {
                  "system": "http://loinc.org",
                  "code": "93037-0",
                  "display": "Portable medical order form"
                }
              ]
            },
            "text": {
              "status": "generated",
              "div": "<div xmlns=\"http://www.w3.org/1999/xhtml\">\n              Order-Referral-Form 5-biol-monit\n            </div>"
            },
            "entry": [
              {
                "reference": "Questionnaire/5-biol-monit"
              },
              {
                "reference": "QuestionnaireResponse/5-biol-monit"
              },
              {
                "reference": "ServiceRequest/5-biol-monit"
              }
            ]
          }
        ]
      }
    },
    {
      "fullUrl": "http://example.com/fhir/Patient/BeatBorer",
      "resource": {
        "resourceType": "Patient",
        "id": "BeatBorer",
        "meta": {
          "profile": [
            "http://fhir.ch/ig/ch-core/StructureDefinition/ch-core-patient"
          ]
        },
        "text": {
          "status": "extensions",
          "div": "<div xmlns=\"http://www.w3.org/1999/xhtml\"><p><b>Generated Narrative</b></p><p><b>Birth Place</b>: Paris Frankreich </p><p><b>Place of origin according to eCH-0011</b>: Köniz BE </p><p><b>religion</b>: <span title=\"Codes: {http://terminology.hl7.org/CodeSystem/v3-ReligiousAffiliation 1077}\">Protestant</span></p><p><b>identifier</b>: Medical record number: 012/08.111101</p><p><b>name</b>: Beat Borer </p><p><b>gender</b>: male</p><p><b>birthDate</b>: 1986-06-06</p><p><b>maritalStatus</b>: <span title=\"Codes: {http://fhir.ch/ig/ch-core/CodeSystem/ech-11-maritalstatus 2}\">verheiratet</span></p><h3>Communications</h3><table class=\"grid\"><tr><td>-</td><td><b>Language</b></td><td><b>Preferred</b></td></tr><tr><td>*</td><td><span title=\"Codes: {urn:ietf:bcp:47 de-CH}\">Deutsch (Schweiz)</span></td><td>true</td></tr></table></div>"
        },
        "extension": [
          {
            "url": "http://hl7.org/fhir/StructureDefinition/patient-birthPlace",
            "valueAddress": {
              "city": "Paris",
              "country": "Frankreich"
            }
          },
          {
            "url": "http://fhir.ch/ig/ch-core/StructureDefinition/ch-core-patient-ech-11-placeoforigin",
            "valueAddress": {
              "city": "Köniz",
              "state": "BE"
            }
          },
          {
            "url": "http://hl7.org/fhir/StructureDefinition/patient-religion",
            "valueCodeableConcept": {
              "coding": [
                {
                  "system": "http://terminology.hl7.org/CodeSystem/v3-ReligiousAffiliation",
                  "code": "1077",
                  "display": "Protestant"
                }
              ]
            }
          }
        ],
        "identifier": [
          {
            "type": {
              "coding": [
                {
                  "system": "http://terminology.hl7.org/CodeSystem/v2-0203",
                  "code": "MR"
                }
              ]
            },
            "system": "urn:oid:2.16.756.5.30.999999.1",
            "value": "012/08.111101"
          }
        ],
        "name": [
          {
            "family": "Borer",
            "given": [
              "Beat"
            ]
          }
        ],
        "gender": "male",
        "birthDate": "1986-06-06",
        "maritalStatus": {
          "coding": [
            {
              "system": "http://fhir.ch/ig/ch-core/CodeSystem/ech-11-maritalstatus",
              "code": "2",
              "display": "verheiratet"
            }
          ]
        },
        "communication": [
          {
            "language": {
              "coding": [
                {
                  "system": "urn:ietf:bcp:47",
                  "code": "de-CH"
                }
              ],
              "text": "Deutsch (Schweiz)"
            },
            "preferred": true
          }
        ]
      }
    },
    {
      "fullUrl": "http://example.com/fhir/Practitioner/PauloPorcellini",
      "resource": {
        "resourceType": "Practitioner",
        "id": "PauloPorcellini",
        "meta": {
          "profile": [
            "http://fhir.ch/ig/ch-core/StructureDefinition/ch-core-practitioner-epr"
          ]
        },
        "text": {
          "status": "generated",
          "div": "<div xmlns=\"http://www.w3.org/1999/xhtml\"><p><b>Generated Narrative</b></p><p><b>identifier</b>: id: 7601000050705</p><p><b>name</b>: Paulo Porcellini </p></div>"
        },
        "identifier": [
          {
            "system": "urn:oid:2.51.1.3",
            "value": "7601000050705"
          }
        ],
        "name": [
          {
            "family": "Porcellini",
            "given": [
              "Paulo"
            ]
          }
        ]
      }
    },
    {
      "fullUrl": "http://example.com/fhir/Organization/Suva",
      "resource": {
        "resourceType": "Organization",
        "id": "Suva",
        "meta": {
          "profile": [
            "http://fhir.ch/ig/ch-core/StructureDefinition/ch-core-organization-epr"
          ]
        },
        "text": {
          "status": "generated",
          "div": "<div xmlns=\"http://www.w3.org/1999/xhtml\"><p><b>Generated Narrative</b></p><p><b>identifier</b>: id: CHE-108.955.179</p><p><b>name</b>: Suva</p><p><b>telecom</b>: <a href=\"tel:+41322345566\">+41322345566</a>, <a href=\"mailto:info@suva.ch\">info@suva.ch</a>, <a href=\"http://www.suva.ch\">http://www.suva.ch</a></p><p><b>address</b>: Löwenplatz 1 Luzern 6004 CH </p></div>"
        },
        "identifier": [
          {
            "system": "urn:oid:2.16.756.5.45",
            "value": "CHE-108.955.179"
          }
        ],
        "name": "Suva",
        "telecom": [
          {
            "system": "phone",
            "value": "+41322345566",
            "use": "work"
          },
          {
            "system": "email",
            "value": "info@suva.ch",
            "use": "work"
          },
          {
            "system": "url",
            "value": "http://www.suva.ch",
            "use": "work"
          }
        ],
        "address": [
          {
            "line": [
              "Löwenplatz 1"
            ],
            "city": "Luzern",
            "postalCode": "6004",
            "country": "CH"
          }
        ]
      }
    },
    {
      "fullUrl": "http://example.com/fhir/PractitionerRole/PauloPorcelliniSuva",
      "resource": {
        "resourceType": "PractitionerRole",
        "id": "PauloPorcelliniSuva",
        "meta": {
          "profile": [
            "http://fhir.ch/ig/ch-core/StructureDefinition/ch-core-practitionerrole"
          ]
        },
        "text": {
          "status": "generated",
          "div": "<div xmlns=\"http://www.w3.org/1999/xhtml\"><p><b>Generated Narrative</b></p><p><b>practitioner</b>: <a href=\"#Practitioner_PauloPorcellini\">See above (Practitioner/PauloPorcellini)</a></p><p><b>organization</b>: <a href=\"#Organization_Suva\">See above (Organization/Suva)</a></p></div>"
        },
        "practitioner": {
          "reference": "Practitioner/PauloPorcellini"
        },
        "organization": {
          "reference": "Organization/Suva"
        }
      }
    },
    {
      "fullUrl": "http://example.com/fhir/Questionnaire/5-biol-monit",
      "resource": {
        "resourceType": "Questionnaire",
        "id": "5-biol-monit",
        "meta": {
          "versionId": "1",
          "lastUpdated": "2019-04-01T20:17:53.340+00:00",
          "profile": [
            "http://fhir.ch/ig/ch-orf/StructureDefinition/ch-orf-questionnaire",
            "http://hl7.org/fhir/uv/sdc/StructureDefinition/sdc-questionnaire",
            "http://hl7.org/fhir/uv/sdc/StructureDefinition/sdc-questionnaire-extract"
          ]
        },
        "text": {
          "status": "extensions",
          "div": "<div xmlns=\"http://www.w3.org/1999/xhtml\"><p><b>Generated Narrative</b></p><p><b>Target structure map</b>: <a href=\"http://fhir.ch/ig/ch-orf/StructureMap/OrfQrToBundle\">http://fhir.ch/ig/ch-orf/StructureMap/OrfQrToBundle</a></p><p><b>Source structure map</b>: <a href=\"http://fhir.ch/ig/ch-orf/StructureMap/OrfPrepopBundleToQr\">http://fhir.ch/ig/ch-orf/StructureMap/OrfPrepopBundleToQr</a></p><blockquote><p><b>Launch context resources</b></p><p><b>value</b>: Bundle</p><p><b>value</b>: Bundle</p><p><b>value</b>: The Bundle that is to be used to pre-populate the form</p></blockquote><p><b>url</b>: <code>http://fhir.ch/ig/ch-lab-order/Questionnaire/5-biol-monit</code></p><p><b>version</b>: 0.9.1</p><p><b>name</b>: LabOrderExample</p><p><b>title</b>: Lab Order Example</p><p><b>status</b>: active</p><p><b>subjectType</b>: Patient</p><p><b>date</b>: 2020-12-17</p><p><b>publisher</b>: HL7 Switzerland</p><p><b>contact</b>: HL7 Switzerland: <a href=\"https://www.hl7.ch/\">https://www.hl7.ch/</a></p><p><b>jurisdiction</b>: <span title=\"Codes: {urn:iso:std:iso:3166 CH}\">Switzerland</span></p><p><b>copyright</b>: CC-BY-SA-4.0</p><blockquote><p><b>item</b></p><p><b>linkId</b>: order</p><p><b>text</b>: Auftrag</p><p><b>type</b>: group</p><p><b>required</b>: true</p><blockquote><p><b>item</b></p><p><b>linkId</b>: order.title</p><p><b>text</b>: Titel</p><p><b>type</b>: string</p></blockquote><blockquote><p><b>item</b></p><p><b>linkId</b>: order.type</p><p><b>text</b>: Typ</p><p><b>type</b>: choice</p><p><b>answerValueSet</b>: <a href=\"http://fhir.ch/ig/ch-epr-term/ValueSet/DocumentEntry.typeCode\">http://fhir.ch/ig/ch-epr-term/ValueSet/DocumentEntry.typeCode</a></p></blockquote><blockquote><p><b>item</b></p><p><b>linkId</b>: order.category</p><p><b>text</b>: Kategorie</p><p><b>type</b>: choice</p><p><b>answerValueSet</b>: <a href=\"http://fhir.ch/ig/ch-epr-term/ValueSet/DocumentEntry.classCode\">http://fhir.ch/ig/ch-epr-term/ValueSet/DocumentEntry.classCode</a></p></blockquote><blockquote><p><b>item</b></p><p><b>linkId</b>: order.placerOrderIdentifier</p><p><b>text</b>: Auftragsnummer des Auftraggebers</p><p><b>type</b>: string</p></blockquote><blockquote><p><b>item</b></p><p><b>hidden</b>: true</p><p><b>linkId</b>: order.placerOrderIdentifierDomain</p><p><b>text</b>: Identifier Domain der Auftragsnummer des Auftraggebers</p><p><b>type</b>: string</p></blockquote><blockquote><p><b>item</b></p><p><b>linkId</b>: order.fillerOrderIdentifier</p><p><b>text</b>: Auftragsnummer des Auftragsempfängers</p><p><b>type</b>: string</p></blockquote><blockquote><p><b>item</b></p><p><b>hidden</b>: true</p><p><b>linkId</b>: order.fillerOrderIdentifierDomain</p><p><b>text</b>: Identifier Domain der Auftragsnummer des Auftragsempfängers</p><p><b>type</b>: string</p></blockquote><blockquote><p><b>item</b></p><p><b>hidden</b>: true</p><p><b>linkId</b>: order.precedentDocumentIdentifier</p><p><b>text</b>: Identifier des Vorgängerdokuments</p><p><b>type</b>: string</p></blockquote><blockquote><p><b>item</b></p><p><b>linkId</b>: order.notificationContactDocument</p><p><b>text</b>: Dringender Benachrichtigungskontakt für dieses Dokument</p><p><b>type</b>: group</p></blockquote><blockquote><p><b>item</b></p><p><b>linkId</b>: order.notificationContactDocumentResponse</p><p><b>text</b>: Dringender Benachrichtigungskontakt für die Antwort auf dieses Dokument</p><p><b>type</b>: group</p></blockquote><blockquote><p><b>item</b></p><p><b>linkId</b>: order.priority</p><p><b>text</b>: Auftragspriorität</p><p><b>type</b>: choice</p></blockquote></blockquote><blockquote><p><b>item</b></p><p><b>linkId</b>: receiver</p><p><b>text</b>: Empfänger</p><p><b>type</b>: group</p><blockquote><p><b>item</b></p><p><b>linkId</b>: receiver.practitioner</p><p><b>text</b>: Empfangende Person</p><p><b>type</b>: group</p></blockquote><blockquote><p><b>item</b></p><p><b>linkId</b>: receiver.organization</p><p><b>text</b>: Empfangende Organisation</p><p><b>type</b>: group</p></blockquote></blockquote><blockquote><p><b>item</b></p><p><b>linkId</b>: patient</p><p><b>text</b>: Patient</p><p><b>type</b>: group</p><blockquote><p><b>item</b></p><p><b>linkId</b>: patient.familyName</p><p><b>text</b>: Name</p><p><b>type</b>: string</p></blockquote><blockquote><p><b>item</b></p><p><b>linkId</b>: patient.maidenName</p><p><b>text</b>: Ledigname</p><p><b>type</b>: string</p></blockquote><blockquote><p><b>item</b></p><p><b>linkId</b>: patient.givenName</p><p><b>text</b>: Vorname</p><p><b>type</b>: string</p></blockquote><blockquote><p><b>item</b></p><p><b>linkId</b>: patient.localPid</p><p><b>text</b>: Lokale Patienten-ID</p><p><b>type</b>: string</p></blockquote><blockquote><p><b>item</b></p><p><b>linkId</b>: patient.birthDate</p><p><b>text</b>: Geburtsdatum</p><p><b>type</b>: date</p></blockquote><blockquote><p><b>item</b></p><p><b>linkId</b>: patient.gender</p><p><b>text</b>: Geschlecht</p><p><b>type</b>: choice</p></blockquote><blockquote><p><b>item</b></p><p><b>linkId</b>: patient.phone</p><p><b>text</b>: Telefon</p><p><b>type</b>: string</p></blockquote><blockquote><p><b>item</b></p><p><b>linkId</b>: patient.email</p><p><b>text</b>: E-Mail</p><p><b>type</b>: string</p></blockquote><blockquote><p><b>item</b></p><p><b>linkId</b>: patient.streetAddressLine</p><p><b>text</b>: Strasse, Hausnummer, Postfach etc.</p><p><b>type</b>: string</p><p><b>repeats</b>: true</p></blockquote><blockquote><p><b>item</b></p><p><b>linkId</b>: patient.postalCode</p><p><b>text</b>: PLZ</p><p><b>type</b>: string</p></blockquote><blockquote><p><b>item</b></p><p><b>linkId</b>: patient.city</p><p><b>text</b>: Ort</p><p><b>type</b>: string</p></blockquote><blockquote><p><b>item</b></p><p><b>linkId</b>: patient.country</p><p><b>text</b>: Land</p><p><b>type</b>: string</p></blockquote></blockquote><blockquote><p><b>item</b></p><p><b>linkId</b>: sender</p><p><b>text</b>: Absender</p><p><b>type</b>: group</p><p><b>required</b>: true</p><blockquote><p><b>item</b></p><p><b>linkId</b>: sender.author</p><p><b>text</b>: Verantwortlicher</p><p><b>type</b>: group</p><p><b>required</b>: true</p></blockquote><blockquote><p><b>item</b></p><p><b>linkId</b>: sender.dataenterer</p><p><b>text</b>: Erfasser</p><p><b>type</b>: group</p></blockquote></blockquote><blockquote><p><b>item</b></p><p><b>linkId</b>: receiverCopies</p><p><b>text</b>: Kopieempfänger</p><p><b>type</b>: group</p><blockquote><p><b>item</b></p><p><b>linkId</b>: receiverCopy</p><p><b>text</b>: Kopieempfangende Organisation oder Person</p><p><b>type</b>: group</p><p><b>repeats</b>: true</p></blockquote></blockquote><blockquote><p><b>item</b></p><p><b>linkId</b>: hematology</p><p><b>text</b>: Hematology</p><p><b>type</b>: group</p><blockquote><p><b>item</b></p><p><b>linkId</b>: lab</p><p><b>text</b>: Laborwerte</p><p><b>type</b>: choice</p><p><b>repeats</b>: true</p></blockquote></blockquote><blockquote><p><b>item</b></p><p><b>linkId</b>: toxicology</p><p><b>text</b>: Toxicology</p><p><b>type</b>: group</p><blockquote><p><b>item</b></p><p><b>linkId</b>: tox</p><p><b>text</b>: Toxic Content</p><p><b>type</b>: choice</p><p><b>repeats</b>: true</p></blockquote></blockquote></div>"
        },
        "extension": [
          {
            "url": "http://hl7.org/fhir/uv/sdc/StructureDefinition/sdc-questionnaire-targetStructureMap",
            "valueCanonical": "http://fhir.ch/ig/ch-orf/StructureMap/OrfQrToBundle"
          },
          {
            "url": "http://hl7.org/fhir/uv/sdc/StructureDefinition/sdc-questionnaire-sourceStructureMap",
            "valueCanonical": "http://fhir.ch/ig/ch-orf/StructureMap/OrfPrepopBundleToQr"
          },
          {
            "url": "http://hl7.org/fhir/uv/sdc/StructureDefinition/sdc-questionnaire-launchContext",
            "extension": [
              {
                "url": "name",
                "valueId": "Bundle"
              },
              {
                "url": "type",
                "valueCode": "Bundle"
              },
              {
                "url": "description",
                "valueString": "The Bundle that is to be used to pre-populate the form"
              }
            ]
          }
        ],
        "url": "http://fhir.ch/ig/ch-lab-order/Questionnaire/5-biol-monit",
        "version": "0.9.1",
        "name": "LabOrderExample",
        "title": "Lab Order Example",
        "status": "active",
        "subjectType": [
          "Patient"
        ],
        "date": "2020-12-17",
        "publisher": "HL7 Switzerland",
        "contact": [
          {
            "name": "HL7 Switzerland",
            "telecom": [
              {
                "system": "url",
                "value": "https://www.hl7.ch/"
              }
            ]
          }
        ],
        "jurisdiction": [
          {
            "coding": [
              {
                "system": "urn:iso:std:iso:3166",
                "code": "CH"
              }
            ]
          }
        ],
        "copyright": "CC-BY-SA-4.0",
        "item": [
          {
            "linkId": "order",
            "text": "Auftrag",
            "type": "group",
            "required": true,
            "item": [
              {
                "linkId": "order.title",
                "text": "Titel",
                "type": "string"
              },
              {
                "linkId": "order.type",
                "text": "Typ",
                "type": "choice",
                "answerValueSet": "http://fhir.ch/ig/ch-epr-term/ValueSet/DocumentEntry.typeCode"
              },
              {
                "linkId": "order.category",
                "text": "Kategorie",
                "type": "choice",
                "answerValueSet": "http://fhir.ch/ig/ch-epr-term/ValueSet/DocumentEntry.classCode"
              },
              {
                "linkId": "order.placerOrderIdentifier",
                "text": "Auftragsnummer des Auftraggebers",
                "type": "string"
              },
              {
                "extension": [
                  {
                    "url": "http://hl7.org/fhir/StructureDefinition/questionnaire-hidden",
                    "valueBoolean": true
                  }
                ],
                "linkId": "order.placerOrderIdentifierDomain",
                "text": "Identifier Domain der Auftragsnummer des Auftraggebers",
                "type": "string"
              },
              {
                "linkId": "order.fillerOrderIdentifier",
                "text": "Auftragsnummer des Auftragsempfängers",
                "type": "string"
              },
              {
                "extension": [
                  {
                    "url": "http://hl7.org/fhir/StructureDefinition/questionnaire-hidden",
                    "valueBoolean": true
                  }
                ],
                "linkId": "order.fillerOrderIdentifierDomain",
                "text": "Identifier Domain der Auftragsnummer des Auftragsempfängers",
                "type": "string"
              },
              {
                "extension": [
                  {
                    "url": "http://hl7.org/fhir/StructureDefinition/questionnaire-hidden",
                    "valueBoolean": true
                  }
                ],
                "linkId": "order.precedentDocumentIdentifier",
                "text": "Identifier des Vorgängerdokuments",
                "type": "string"
              },
              {
                "linkId": "order.notificationContactDocument",
                "text": "Dringender Benachrichtigungskontakt für dieses Dokument",
                "type": "group",
                "item": [
                  {
                    "linkId": "order.notificationContactDocument.practitioner",
                    "text": "Zu benachrichtigende Person",
                    "type": "group",
                    "item": [
                      {
                        "linkId": "order.notificationContactDocument.practitioner.title",
                        "text": "Titel",
                        "type": "string"
                      },
                      {
                        "linkId": "order.notificationContactDocument.practitioner.familyName",
                        "text": "Name",
                        "type": "string"
                      },
                      {
                        "linkId": "order.notificationContactDocument.practitioner.givenName",
                        "text": "Vorname",
                        "type": "string"
                      },
                      {
                        "linkId": "order.notificationContactDocument.practitioner.phone",
                        "text": "Telefon",
                        "type": "string"
                      },
                      {
                        "linkId": "order.notificationContactDocument.practitioner.email",
                        "text": "E-Mail",
                        "type": "string"
                      }
                    ]
                  }
                ]
              },
              {
                "linkId": "order.notificationContactDocumentResponse",
                "text": "Dringender Benachrichtigungskontakt für die Antwort auf dieses Dokument",
                "type": "group",
                "item": [
                  {
                    "linkId": "order.notificationContactDocumentResponse.practitioner",
                    "text": "Zu benachrichtigende Person",
                    "type": "group",
                    "item": [
                      {
                        "linkId": "order.notificationContactDocumentResponse.practitioner.title",
                        "text": "Titel",
                        "type": "string"
                      },
                      {
                        "linkId": "order.notificationContactDocumentResponse.practitioner.familyName",
                        "text": "Name",
                        "type": "string"
                      },
                      {
                        "linkId": "order.notificationContactDocumentResponse.practitioner.givenName",
                        "text": "Vorname",
                        "type": "string"
                      },
                      {
                        "linkId": "order.notificationContactDocumentResponse.practitioner.phone",
                        "text": "Telefon",
                        "type": "string"
                      },
                      {
                        "linkId": "order.notificationContactDocumentResponse.practitioner.email",
                        "text": "E-Mail",
                        "type": "string"
                      }
                    ]
                  }
                ]
              },
              {
                "linkId": "order.priority",
                "text": "Auftragspriorität",
                "type": "choice",
                "answerOption": [
                  {
                    "valueCoding": {
                      "system": "http://hl7.org/fhir/request-priority",
                      "code": "routine",
                      "display": "Die Anfrage hat normale Priorität."
                    },
                    "initialSelected": true
                  },
                  {
                    "valueCoding": {
                      "system": "http://hl7.org/fhir/request-priority",
                      "code": "urgent",
                      "display": "Die Anfrage sollte dringend bearbeitet werden - höhere Priorität als normal."
                    }
                  },
                  {
                    "valueCoding": {
                      "system": "http://hl7.org/fhir/request-priority",
                      "code": "asap",
                      "display": "Die Anfrage sollte so schnell wie möglich bearbeitet werden - höhere Priorität als dringend."
                    }
                  },
                  {
                    "valueCoding": {
                      "system": "http://hl7.org/fhir/request-priority",
                      "code": "stat",
                      "display": "Die Anfrage sollte sofort bearbeitet werden - höchstmögliche Priorität. Z.B. bei einem Notfall."
                    }
                  }
                ]
              }
            ]
          },
          {
            "linkId": "receiver",
            "text": "Empfänger",
            "type": "group",
            "item": [
              {
                "linkId": "receiver.practitioner",
                "text": "Empfangende Person",
                "type": "group",
                "item": [
                  {
                    "linkId": "receiver.practitioner.title",
                    "text": "Titel",
                    "type": "string"
                  },
                  {
                    "linkId": "receiver.practitioner.familyName",
                    "text": "Name",
                    "type": "string"
                  },
                  {
                    "linkId": "receiver.practitioner.givenName",
                    "text": "Vorname",
                    "type": "string"
                  },
                  {
                    "linkId": "receiver.practitioner.gln",
                    "text": "GLN",
                    "type": "string"
                  },
                  {
                    "linkId": "receiver.practitioner.phone",
                    "text": "Telefon",
                    "type": "string"
                  },
                  {
                    "linkId": "receiver.practitioner.email",
                    "text": "E-Mail",
                    "type": "string"
                  }
                ]
              },
              {
                "linkId": "receiver.organization",
                "text": "Empfangende Organisation",
                "type": "group",
                "item": [
                  {
                    "linkId": "receiver.organization.name",
                    "text": "Name der Organisation",
                    "type": "string"
                  },
                  {
                    "linkId": "receiver.organization.streetAddressLine",
                    "text": "Strasse, Hausnummer, Postfach etc.",
                    "type": "string",
                    "repeats": true
                  },
                  {
                    "linkId": "receiver.organization.postalCode",
                    "text": "PLZ",
                    "type": "string"
                  },
                  {
                    "linkId": "receiver.organization.city",
                    "text": "Ort",
                    "type": "string"
                  },
                  {
                    "linkId": "receiver.organization.country",
                    "text": "Land",
                    "type": "string"
                  }
                ]
              }
            ]
          },
          {
            "linkId": "patient",
            "text": "Patient",
            "type": "group",
            "item": [
              {
                "linkId": "patient.familyName",
                "text": "Name",
                "type": "string"
              },
              {
                "linkId": "patient.maidenName",
                "text": "Ledigname",
                "type": "string"
              },
              {
                "linkId": "patient.givenName",
                "text": "Vorname",
                "type": "string"
              },
              {
                "linkId": "patient.localPid",
                "text": "Lokale Patienten-ID",
                "type": "string"
              },
              {
                "linkId": "patient.birthDate",
                "text": "Geburtsdatum",
                "type": "date"
              },
              {
                "linkId": "patient.gender",
                "text": "Geschlecht",
                "type": "choice",
                "answerOption": [
                  {
                    "valueCoding": {
                      "system": "http://hl7.org/fhir/administrative-gender",
                      "code": "male",
                      "display": "Männlich"
                    },
                    "initialSelected": true
                  },
                  {
                    "valueCoding": {
                      "system": "http://hl7.org/fhir/administrative-gender",
                      "code": "female",
                      "display": "Weiblich"
                    }
                  },
                  {
                    "valueCoding": {
                      "system": "http://hl7.org/fhir/administrative-gender",
                      "code": "other",
                      "display": "Anderes"
                    }
                  }
                ]
              },
              {
                "linkId": "patient.phone",
                "text": "Telefon",
                "type": "string"
              },
              {
                "linkId": "patient.email",
                "text": "E-Mail",
                "type": "string"
              },
              {
                "linkId": "patient.streetAddressLine",
                "text": "Strasse, Hausnummer, Postfach etc.",
                "type": "string",
                "repeats": true
              },
              {
                "linkId": "patient.postalCode",
                "text": "PLZ",
                "type": "string"
              },
              {
                "linkId": "patient.city",
                "text": "Ort",
                "type": "string"
              },
              {
                "linkId": "patient.country",
                "text": "Land",
                "type": "string"
              }
            ]
          },
          {
            "linkId": "sender",
            "text": "Absender",
            "type": "group",
            "required": true,
            "item": [
              {
                "linkId": "sender.author",
                "text": "Verantwortlicher",
                "type": "group",
                "required": true,
                "item": [
                  {
                    "linkId": "sender.author.practitioner",
                    "text": "Verantwortliche Person",
                    "type": "group",
                    "item": [
                      {
                        "linkId": "sender.author.practitioner.title",
                        "text": "Titel",
                        "type": "string"
                      },
                      {
                        "linkId": "sender.author.practitioner.familyName",
                        "text": "Name",
                        "type": "string"
                      },
                      {
                        "linkId": "sender.author.practitioner.givenName",
                        "text": "Vorname",
                        "type": "string"
                      },
                      {
                        "linkId": "sender.author.practitioner.gln",
                        "text": "GLN",
                        "type": "string"
                      },
                      {
                        "linkId": "sender.author.practitioner.phone",
                        "text": "Telefon",
                        "type": "string"
                      },
                      {
                        "linkId": "sender.author.practitioner.email",
                        "text": "E-Mail",
                        "type": "string"
                      }
                    ]
                  },
                  {
                    "linkId": "sender.author.organization",
                    "text": "Verantwortliche Organisation",
                    "type": "group",
                    "item": [
                      {
                        "linkId": "sender.author.organization.name",
                        "text": "Name der Organisation",
                        "type": "string"
                      },
                      {
                        "linkId": "sender.author.organization.streetAddressLine",
                        "text": "Strasse, Hausnummer, Postfach etc.",
                        "type": "string",
                        "repeats": true
                      },
                      {
                        "linkId": "sender.author.organization.postalCode",
                        "text": "PLZ",
                        "type": "string"
                      },
                      {
                        "linkId": "sender.author.organization.city",
                        "text": "Ort",
                        "type": "string"
                      },
                      {
                        "linkId": "sender.author.organization.country",
                        "text": "Land",
                        "type": "string"
                      }
                    ]
                  }
                ]
              },
              {
                "linkId": "sender.dataenterer",
                "text": "Erfasser",
                "type": "group",
                "item": [
                  {
                    "linkId": "sender.dataenterer.practitioner",
                    "text": "Erfassende Person",
                    "type": "group",
                    "item": [
                      {
                        "linkId": "sender.dataenterer.practitioner.familyName",
                        "text": "Name",
                        "type": "string"
                      },
                      {
                        "linkId": "sender.dataenterer.practitioner.givenName",
                        "text": "Vorname",
                        "type": "string"
                      },
                      {
                        "linkId": "sender.dataenterer.practitioner.phone",
                        "text": "Telefon",
                        "type": "string"
                      },
                      {
                        "linkId": "sender.dataenterer.practitioner.email",
                        "text": "E-Mail",
                        "type": "string"
                      }
                    ]
                  }
                ]
              }
            ]
          },
          {
            "linkId": "receiverCopies",
            "text": "Kopieempfänger",
            "type": "group",
            "item": [
              {
                "linkId": "receiverCopy",
                "text": "Kopieempfangende Organisation oder Person",
                "type": "group",
                "repeats": true,
                "item": [
                  {
                    "linkId": "receiverCopy.organization.name",
                    "text": "Name der Organisation",
                    "type": "string"
                  },
                  {
                    "linkId": "receiverCopy.title",
                    "text": "Titel",
                    "type": "string"
                  },
                  {
                    "linkId": "receiverCopy.familyName",
                    "text": "Name",
                    "type": "string"
                  },
                  {
                    "linkId": "receiverCopy.givenName",
                    "text": "Vorname",
                    "type": "string"
                  },
                  {
                    "linkId": "receiverCopy.phone",
                    "text": "Telefon",
                    "type": "string"
                  },
                  {
                    "linkId": "receiverCopy.email",
                    "text": "E-Mail",
                    "type": "string"
                  },
                  {
                    "linkId": "receiverCopy.streetAddressLine",
                    "text": "Strasse, Hausnummer, Postfach etc.",
                    "type": "string",
                    "repeats": true
                  },
                  {
                    "linkId": "receiverCopy.postalCode",
                    "text": "PLZ",
                    "type": "string"
                  },
                  {
                    "linkId": "receiverCopy.city",
                    "text": "Ort",
                    "type": "string"
                  },
                  {
                    "linkId": "receiverCopy.country",
                    "text": "Land",
                    "type": "string"
                  }
                ]
              }
            ]
          },
          {
            "linkId": "hematology",
            "text": "Hematology",
            "type": "group",
            "item": [
              {
                "linkId": "lab",
                "text": "Laborwerte",
                "type": "choice",
                "repeats": true,
                "answerOption": [
                  {
                    "valueCoding": {
                      "system": "http://loinc.org",
                      "code": "24360-0",
                      "display": "Hemoglobin and Hematocrit panel - Blood"
                    }
                  },
                  {
                    "valueCoding": {
                      "system": "http://loinc.org",
                      "code": "43113-0",
                      "display": "Hemoglobin electrophoresis panel in Blood"
                    }
                  },
                  {
                    "valueCoding": {
                      "system": "http://loinc.org",
                      "code": "57021-8",
                      "display": "CBC W Auto Differential panel - Blood"
                    }
                  },
                  {
                    "valueCoding": {
                      "system": "http://loinc.org",
                      "code": "58410-2",
                      "display": "CBC panel - Blood by Automated count"
                    }
                  },
                  {
                    "valueCoding": {
                      "system": "http://loinc.org",
                      "code": "57023-4",
                      "display": "Auto Differential panel - Blood"
                    }
                  }
                ]
              }
            ]
          },
          {
            "linkId": "toxicology",
            "text": "Toxicology",
            "type": "group",
            "item": [
              {
                "linkId": "tox",
                "text": "Toxic Content",
                "type": "choice",
                "repeats": true,
                "answerOption": [
                  {
                    "valueCoding": {
                      "system": "http://loinc.org",
                      "code": "29587-3",
                      "display": "Toxicology panel - Blood"
                    }
                  },
                  {
                    "valueCoding": {
                      "system": "http://loinc.org",
                      "code": "54454-4",
                      "display": "Arsenic fractions panel - Urine"
                    }
                  },
                  {
                    "valueCoding": {
                      "system": "http://loinc.org",
                      "code": "29589-9",
                      "display": "Heavy metals panel - Urine"
                    }
                  }
                ]
              }
            ]
          }
        ]
      }
    },
    {
      "fullUrl": "http://example.com/fhir/QuestionnaireResponse/5-biol-monit",
      "resource": {
        "resourceType": "QuestionnaireResponse",
        "id": "5-biol-monit",
        "meta": {
          "versionId": "1",
          "lastUpdated": "2019-04-01T20:17:53.340+00:00",
          "profile": [
            "http://fhir.ch/ig/ch-orf/StructureDefinition/ch-orf-questionnaireresponse"
          ]
        },
        "text": {
          "status": "generated",
          "div": "<div xmlns=\"http://www.w3.org/1999/xhtml\"><p><b>Generated Narrative</b></p><p><b>questionnaire</b>: <a href=\"http://fhir.ch/ig/ch-lab-order/Questionnaire/5-biol-monit\">http://fhir.ch/ig/ch-lab-order/Questionnaire/5-biol-monit</a></p><p><b>status</b>: completed</p><blockquote><p><b>item</b></p><p><b>linkId</b>: order</p><p><b>text</b>: Auftrag</p><blockquote><p><b>item</b></p><p><b>linkId</b>: order.placerOrderIdentifier</p><p><b>text</b>: Auftragsnummer des Auftraggebers</p></blockquote><blockquote><p><b>item</b></p><p><b>linkId</b>: order.placerOrderIdentifierDomain</p><p><b>text</b>: Identifier Domain der Auftragsnummer des Auftraggebers</p></blockquote><blockquote><p><b>item</b></p><p><b>linkId</b>: order.precedentDocumentIdentifier</p><p><b>text</b>: Identifier des Vorgängerdokuments</p></blockquote><blockquote><p><b>item</b></p><p><b>linkId</b>: order.notificationContactDocument</p><p><b>text</b>: Dringender Benachrichtigungskontakt für dieses Dokument</p></blockquote><blockquote><p><b>item</b></p><p><b>linkId</b>: order.notificationContactDocumentResponse</p><p><b>text</b>: Dringender Benachrichtigungskontakt für die Antwort auf dieses Dokument</p></blockquote><blockquote><p><b>item</b></p><p><b>linkId</b>: order.priority</p><p><b>text</b>: Auftragspriorität</p></blockquote></blockquote><blockquote><p><b>item</b></p><p><b>linkId</b>: receiver</p><p><b>text</b>: Empfänger</p><blockquote><p><b>item</b></p><p><b>linkId</b>: receiver.practitioner</p><p><b>text</b>: Empfangende Person</p></blockquote><blockquote><p><b>item</b></p><p><b>linkId</b>: receiver.organization</p><p><b>text</b>: Empfangende Organisation</p></blockquote></blockquote><blockquote><p><b>item</b></p><p><b>linkId</b>: patient</p><p><b>text</b>: Patient</p><blockquote><p><b>item</b></p><p><b>linkId</b>: patient.familyName</p><p><b>text</b>: Name</p></blockquote><blockquote><p><b>item</b></p><p><b>linkId</b>: patient.maidenName</p><p><b>text</b>: Ledigname</p></blockquote><blockquote><p><b>item</b></p><p><b>linkId</b>: patient.givenName</p><p><b>text</b>: Vorname</p></blockquote><blockquote><p><b>item</b></p><p><b>linkId</b>: patient.localPid</p><p><b>text</b>: Lokale Patienten-ID</p></blockquote><blockquote><p><b>item</b></p><p><b>linkId</b>: patient.birthDate</p><p><b>text</b>: Geburtsdatum</p></blockquote><blockquote><p><b>item</b></p><p><b>linkId</b>: patient.gender</p><p><b>text</b>: Geschlecht</p></blockquote><blockquote><p><b>item</b></p><p><b>linkId</b>: patient.phone</p><p><b>text</b>: Telefon</p></blockquote><blockquote><p><b>item</b></p><p><b>linkId</b>: patient.email</p><p><b>text</b>: E-Mail</p></blockquote><blockquote><p><b>item</b></p><p><b>linkId</b>: patient.streetAddressLine</p><p><b>text</b>: Strasse, Hausnummer, Postfach etc.</p></blockquote><blockquote><p><b>item</b></p><p><b>linkId</b>: patient.postalCode</p><p><b>text</b>: PLZ</p></blockquote><blockquote><p><b>item</b></p><p><b>linkId</b>: patient.city</p><p><b>text</b>: Ort</p></blockquote><blockquote><p><b>item</b></p><p><b>linkId</b>: patient.country</p><p><b>text</b>: Land</p></blockquote></blockquote><blockquote><p><b>item</b></p><p><b>linkId</b>: sender</p><p><b>text</b>: Absender</p><blockquote><p><b>item</b></p><p><b>linkId</b>: sender.author</p><p><b>text</b>: Verantwortlicher</p></blockquote><blockquote><p><b>item</b></p><p><b>linkId</b>: sender.dataenterer</p><p><b>text</b>: Erfasser</p></blockquote></blockquote><blockquote><p><b>item</b></p><p><b>linkId</b>: receiverCopies</p><p><b>text</b>: Kopieempfänger</p><blockquote><p><b>item</b></p><p><b>linkId</b>: receiverCopy</p><p><b>text</b>: Kopieempfangende Organisation oder Person</p></blockquote><blockquote><p><b>item</b></p><p><b>linkId</b>: receiverCopy</p><p><b>text</b>: Kopieempfangende Organisation oder Person</p></blockquote></blockquote><blockquote><p><b>item</b></p><p><b>linkId</b>: hematology</p><p><b>text</b>: Hematology</p><blockquote><p><b>item</b></p><p><b>linkId</b>: lab</p><p><b>text</b>: Laborwerte</p></blockquote></blockquote><blockquote><p><b>item</b></p><p><b>linkId</b>: toxicology</p><p><b>text</b>: Toxicology</p><blockquote><p><b>item</b></p><p><b>linkId</b>: tox</p><p><b>text</b>: Toxic Content</p></blockquote></blockquote></div>"
        },
        "questionnaire": "http://fhir.ch/ig/ch-lab-order/Questionnaire/5-biol-monit",
        "status": "completed",
        "item": [
          {
            "linkId": "order",
            "text": "Auftrag",
            "item": [
              {
                "linkId": "order.placerOrderIdentifier",
                "text": "Auftragsnummer des Auftraggebers",
                "answer": [
                  {
                    "valueString": "123"
                  }
                ]
              },
              {
                "linkId": "order.placerOrderIdentifierDomain",
                "text": "Identifier Domain der Auftragsnummer des Auftraggebers",
                "answer": [
                  {
                    "valueString": "urn:oid:1.3.4.5.6.7"
                  }
                ]
              },
              {
                "linkId": "order.precedentDocumentIdentifier",
                "text": "Identifier des Vorgängerdokuments",
                "answer": [
                  {
                    "valueString": "1622f2fb-6ba3-4532-9aed-35b158def187"
                  }
                ]
              },
              {
                "linkId": "order.notificationContactDocument",
                "text": "Dringender Benachrichtigungskontakt für dieses Dokument",
                "item": [
                  {
                    "linkId": "order.notificationContactDocument.practitioner",
                    "text": "Zu benachrichtigende Person",
                    "item": [
                      {
                        "linkId": "order.notificationContactDocument.practitioner.title",
                        "text": "Titel",
                        "answer": [
                          {
                            "valueString": "Dr. med."
                          }
                        ]
                      },
                      {
                        "linkId": "order.notificationContactDocument.practitioner.familyName",
                        "text": "Name",
                        "answer": [
                          {
                            "valueString": "Erlenmeyer"
                          }
                        ]
                      },
                      {
                        "linkId": "order.notificationContactDocument.practitioner.givenName",
                        "text": "Vorname",
                        "answer": [
                          {
                            "valueString": "Eva"
                          }
                        ]
                      },
                      {
                        "linkId": "order.notificationContactDocument.practitioner.phone",
                        "text": "Telefon",
                        "answer": [
                          {
                            "valueString": "033 444 55 66"
                          }
                        ]
                      },
                      {
                        "linkId": "order.notificationContactDocument.practitioner.email",
                        "text": "E-Mail",
                        "answer": [
                          {
                            "valueString": "eva.erlenmeyer@labor-pipette.ch"
                          }
                        ]
                      }
                    ]
                  }
                ]
              },
              {
                "linkId": "order.notificationContactDocumentResponse",
                "text": "Dringender Benachrichtigungskontakt für die Antwort auf dieses Dokument",
                "item": [
                  {
                    "linkId": "order.notificationContactDocumentResponse.practitioner",
                    "text": "Zu benachrichtigende Person",
                    "item": [
                      {
                        "linkId": "order.notificationContactDocumentResponse.practitioner.title",
                        "text": "Titel",
                        "answer": [
                          {
                            "valueString": "Dr. med."
                          }
                        ]
                      },
                      {
                        "linkId": "order.notificationContactDocumentResponse.practitioner.familyName",
                        "text": "Name",
                        "answer": [
                          {
                            "valueString": "Porcellini"
                          }
                        ]
                      },
                      {
                        "linkId": "order.notificationContactDocumentResponse.practitioner.givenName",
                        "text": "Vorname",
                        "answer": [
                          {
                            "valueString": "Paulo"
                          }
                        ]
                      },
                      {
                        "linkId": "order.notificationContactDocumentResponse.practitioner.phone",
                        "text": "Telefon",
                        "answer": [
                          {
                            "valueString": "036 336 22 33"
                          }
                        ]
                      },
                      {
                        "linkId": "order.notificationContactDocumentResponse.practitioner.email",
                        "text": "E-Mail",
                        "answer": [
                          {
                            "valueString": "paulo.porcellini@suva.ch"
                          }
                        ]
                      }
                    ]
                  }
                ]
              },
              {
                "linkId": "order.priority",
                "text": "Auftragspriorität",
                "answer": [
                  {
                    "valueCoding": {
                      "system": "http://hl7.org/fhir/request-priority",
                      "code": "routine"
                    }
                  }
                ]
              }
            ]
          },
          {
            "linkId": "receiver",
            "text": "Empfänger",
            "item": [
              {
                "linkId": "receiver.practitioner",
                "text": "Empfangende Person",
                "item": [
                  {
                    "linkId": "receiver.practitioner.title",
                    "text": "Titel",
                    "answer": [
                      {
                        "valueString": "Dr. med."
                      }
                    ]
                  },
                  {
                    "linkId": "receiver.practitioner.familyName",
                    "text": "Name",
                    "answer": [
                      {
                        "valueString": "Erlenmeyer"
                      }
                    ]
                  },
                  {
                    "linkId": "receiver.practitioner.givenName",
                    "text": "Vorname",
                    "answer": [
                      {
                        "valueString": "Eva"
                      }
                    ]
                  },
                  {
                    "linkId": "receiver.practitioner.gln",
                    "text": "GLN",
                    "answer": [
                      {
                        "valueString": "7601000050703"
                      }
                    ]
                  },
                  {
                    "linkId": "receiver.practitioner.phone",
                    "text": "Telefon",
                    "answer": [
                      {
                        "valueString": "+41322552525"
                      }
                    ]
                  },
                  {
                    "linkId": "receiver.practitioner.email",
                    "text": "E-Mail",
                    "answer": [
                      {
                        "valueString": "eva.erlenmeyer@labor-pipette.ch"
                      }
                    ]
                  }
                ]
              },
              {
                "linkId": "receiver.organization",
                "text": "Empfangende Organisation",
                "item": [
                  {
                    "linkId": "receiver.organization.name",
                    "text": "Name der Organisation",
                    "answer": [
                      {
                        "valueString": "LaborPipette"
                      }
                    ]
                  },
                  {
                    "linkId": "receiver.organization.streetAddressLine",
                    "text": "Strasse, Hausnummer, Postfach etc.",
                    "answer": [
                      {
                        "valueString": "Laborstrasse 23"
                      },
                      {
                        "valueString": "Postfach 3344"
                      }
                    ]
                  },
                  {
                    "linkId": "receiver.organization.postalCode",
                    "text": "PLZ",
                    "answer": [
                      {
                        "valueString": "4600"
                      }
                    ]
                  },
                  {
                    "linkId": "receiver.organization.city",
                    "text": "Ort",
                    "answer": [
                      {
                        "valueString": "Olten"
                      }
                    ]
                  },
                  {
                    "linkId": "receiver.organization.country",
                    "text": "Land",
                    "answer": [
                      {
                        "valueString": "Schweiz"
                      }
                    ]
                  }
                ]
              }
            ]
          },
          {
            "linkId": "patient",
            "text": "Patient",
            "item": [
              {
                "linkId": "patient.familyName",
                "text": "Name",
                "answer": [
                  {
                    "valueString": "Borer"
                  }
                ]
              },
              {
                "linkId": "patient.maidenName",
                "text": "Ledigname",
                "answer": [
                  {
                    "valueString": "Borer"
                  }
                ]
              },
              {
                "linkId": "patient.givenName",
                "text": "Vorname",
                "answer": [
                  {
                    "valueString": "Beat"
                  }
                ]
              },
              {
                "linkId": "patient.localPid",
                "text": "Lokale Patienten-ID",
                "answer": [
                  {
                    "valueString": "11.22.33.9788"
                  }
                ]
              },
              {
                "linkId": "patient.birthDate",
                "text": "Geburtsdatum",
                "answer": [
                  {
                    "valueDate": "1986-06-06"
                  }
                ]
              },
              {
                "linkId": "patient.gender",
                "text": "Geschlecht",
                "answer": [
                  {
                    "valueCoding": {
                      "system": "http://hl7.org/fhir/administrative-gender",
                      "code": "male"
                    }
                  }
                ]
              },
              {
                "linkId": "patient.phone",
                "text": "Telefon",
                "answer": [
                  {
                    "valueString": "+41 36 123 45 67"
                  }
                ]
              },
              {
                "linkId": "patient.email",
                "text": "E-Mail",
                "answer": [
                  {
                    "valueString": "beat.borer@example.ch"
                  }
                ]
              },
              {
                "linkId": "patient.streetAddressLine",
                "text": "Strasse, Hausnummer, Postfach etc.",
                "answer": [
                  {
                    "valueString": "Bleistrasse"
                  },
                  {
                    "valueString": "117"
                  }
                ]
              },
              {
                "linkId": "patient.postalCode",
                "text": "PLZ",
                "answer": [
                  {
                    "valueString": "8008"
                  }
                ]
              },
              {
                "linkId": "patient.city",
                "text": "Ort",
                "answer": [
                  {
                    "valueString": "Rapperswil"
                  }
                ]
              },
              {
                "linkId": "patient.country",
                "text": "Land",
                "answer": [
                  {
                    "valueString": "Schweiz"
                  }
                ]
              }
            ]
          },
          {
            "linkId": "sender",
            "text": "Absender",
            "item": [
              {
                "linkId": "sender.author",
                "text": "Verantwortlicher",
                "item": [
                  {
                    "linkId": "sender.author.practitioner",
                    "text": "Verantwortliche Person",
                    "item": [
                      {
                        "linkId": "sender.author.practitioner.title",
                        "text": "Titel",
                        "answer": [
                          {
                            "valueString": "Dr. med."
                          }
                        ]
                      },
                      {
                        "linkId": "sender.author.practitioner.familyName",
                        "text": "Name",
                        "answer": [
                          {
                            "valueString": "Porcellini"
                          }
                        ]
                      },
                      {
                        "linkId": "sender.author.practitioner.givenName",
                        "text": "Vorname",
                        "answer": [
                          {
                            "valueString": "Paulo"
                          }
                        ]
                      },
                      {
                        "linkId": "sender.author.practitioner.gln",
                        "text": "GLN",
                        "answer": [
                          {
                            "valueString": "7601000034545"
                          }
                        ]
                      },
                      {
                        "linkId": "sender.author.practitioner.phone",
                        "text": "Telefon",
                        "answer": [
                          {
                            "valueString": "036 336 22 33"
                          }
                        ]
                      },
                      {
                        "linkId": "sender.author.practitioner.email",
                        "text": "E-Mail",
                        "answer": [
                          {
                            "valueString": "paulo.porcellini@suva.ch"
                          }
                        ]
                      }
                    ]
                  },
                  {
                    "linkId": "sender.author.organization",
                    "text": "Verantwortliche Organisation",
                    "item": [
                      {
                        "linkId": "sender.author.organization.name",
                        "text": "Name der Organisation",
                        "answer": [
                          {
                            "valueString": "Suva"
                          }
                        ]
                      },
                      {
                        "linkId": "sender.author.organization.streetAddressLine",
                        "text": "Strasse, Hausnummer, Postfach etc.",
                        "answer": [
                          {
                            "valueString": "Löwenplatz 1"
                          },
                          {
                            "valueString": "Postfach 1122"
                          }
                        ]
                      },
                      {
                        "linkId": "sender.author.organization.postalCode",
                        "text": "PLZ",
                        "answer": [
                          {
                            "valueString": "6004"
                          }
                        ]
                      },
                      {
                        "linkId": "sender.author.organization.city",
                        "text": "Ort",
                        "answer": [
                          {
                            "valueString": "Luzern"
                          }
                        ]
                      },
                      {
                        "linkId": "sender.author.organization.country",
                        "text": "Land",
                        "answer": [
                          {
                            "valueString": "Schweiz"
                          }
                        ]
                      }
                    ]
                  }
                ]
              },
              {
                "linkId": "sender.dataenterer",
                "text": "Erfasser",
                "item": [
                  {
                    "linkId": "sender.dataenterer.practitioner",
                    "text": "Erfassende Person",
                    "item": [
                      {
                        "linkId": "sender.dataenterer.practitioner.familyName",
                        "text": "Name",
                        "answer": [
                          {
                            "valueString": "Porcellini"
                          }
                        ]
                      },
                      {
                        "linkId": "sender.dataenterer.practitioner.givenName",
                        "text": "Vorname",
                        "answer": [
                          {
                            "valueString": "Paulo"
                          }
                        ]
                      },
                      {
                        "linkId": "sender.dataenterer.practitioner.phone",
                        "text": "Telefon",
                        "answer": [
                          {
                            "valueString": "036 336 22 33"
                          }
                        ]
                      },
                      {
                        "linkId": "sender.dataenterer.practitioner.email",
                        "text": "E-Mail",
                        "answer": [
                          {
                            "valueString": "paulo.porcellini@suva.ch"
                          }
                        ]
                      }
                    ]
                  }
                ]
              }
            ]
          },
          {
            "linkId": "receiverCopies",
            "text": "Kopieempfänger",
            "item": [
              {
                "linkId": "receiverCopy",
                "text": "Kopieempfangende Organisation oder Person",
                "item": [
                  {
                    "linkId": "receiverCopy.organization.name",
                    "text": "Name der Organisation",
                    "answer": [
                      {
                        "valueString": "Praxis Seeblick"
                      }
                    ]
                  },
                  {
                    "linkId": "receiverCopy.title",
                    "text": "Titel",
                    "answer": [
                      {
                        "valueString": "Dr. med."
                      }
                    ]
                  },
                  {
                    "linkId": "receiverCopy.familyName",
                    "text": "Name",
                    "answer": [
                      {
                        "valueString": "Meier"
                      }
                    ]
                  },
                  {
                    "linkId": "receiverCopy.givenName",
                    "text": "Vorname",
                    "answer": [
                      {
                        "valueString": "Sabine"
                      }
                    ]
                  },
                  {
                    "linkId": "receiverCopy.phone",
                    "text": "Telefon",
                    "answer": [
                      {
                        "valueString": "044 333 22 11"
                      }
                    ]
                  },
                  {
                    "linkId": "receiverCopy.email",
                    "text": "E-Mail",
                    "answer": [
                      {
                        "valueString": "sabine.meier@praxisseeblick.ch"
                      }
                    ]
                  }
                ]
              },
              {
                "linkId": "receiverCopy",
                "text": "Kopieempfangende Organisation oder Person",
                "item": [
                  {
                    "linkId": "receiverCopy.familyName",
                    "text": "Name",
                    "answer": [
                      {
                        "valueString": "Musterfrau"
                      }
                    ]
                  },
                  {
                    "linkId": "receiverCopy.givenName",
                    "text": "Vorname",
                    "answer": [
                      {
                        "valueString": "Erika"
                      }
                    ]
                  },
                  {
                    "linkId": "receiverCopy.phone",
                    "text": "Telefon",
                    "answer": [
                      {
                        "valueString": "079 979 79 79"
                      }
                    ]
                  },
                  {
                    "linkId": "receiverCopy.email",
                    "text": "E-Mail",
                    "answer": [
                      {
                        "valueString": "erika@musterfrau.ch"
                      }
                    ]
                  },
                  {
                    "linkId": "receiverCopy.streetAddressLine",
                    "text": "Strasse, Hausnummer, Postfach etc.",
                    "answer": [
                      {
                        "valueString": "Musterweg"
                      },
                      {
                        "valueString": "6a"
                      }
                    ]
                  },
                  {
                    "linkId": "receiverCopy.postalCode",
                    "text": "PLZ",
                    "answer": [
                      {
                        "valueString": "8000"
                      }
                    ]
                  },
                  {
                    "linkId": "receiverCopy.city",
                    "text": "Ort",
                    "answer": [
                      {
                        "valueString": "Zürich"
                      }
                    ]
                  },
                  {
                    "linkId": "receiverCopy.country",
                    "text": "Land",
                    "answer": [
                      {
                        "valueString": "Schweiz"
                      }
                    ]
                  }
                ]
              }
            ]
          },
          {
            "linkId": "hematology",
            "text": "Hematology",
            "item": [
              {
                "linkId": "lab",
                "text": "Laborwerte",
                "answer": [
                  {
                    "valueCoding": {
                      "system": "http://loinc.org",
                      "code": "24360-0",
                      "display": "Hemoglobin and Hematocrit panel - Blood"
                    }
                  },
                  {
                    "valueCoding": {
                      "system": "http://loinc.org",
                      "code": "43113-0",
                      "display": "Hemoglobin electrophoresis panel in Blood"
                    }
                  },
                  {
                    "valueCoding": {
                      "system": "http://loinc.org",
                      "code": "57021-8",
                      "display": "CBC W Auto Differential panel - Blood"
                    }
                  },
                  {
                    "valueCoding": {
                      "system": "http://loinc.org",
                      "code": "58410-2",
                      "display": "CBC panel - Blood by Automated count"
                    }
                  },
                  {
                    "valueCoding": {
                      "system": "http://loinc.org",
                      "code": "57023-4",
                      "display": "Auto Differential panel - Blood"
                    }
                  }
                ]
              }
            ]
          },
          {
            "linkId": "toxicology",
            "text": "Toxicology",
            "item": [
              {
                "linkId": "tox",
                "text": "Toxic Content",
                "answer": [
                  {
                    "valueCoding": {
                      "system": "http://loinc.org",
                      "code": "29587-3",
                      "display": "Toxicology panel - Blood"
                    }
                  },
                  {
                    "valueCoding": {
                      "system": "http://loinc.org",
                      "code": "54454-4",
                      "display": "Arsenic fractions panel - Urine"
                    }
                  },
                  {
                    "valueCoding": {
                      "system": "http://loinc.org",
                      "code": "29589-9",
                      "display": "Heavy metals panel - Urine"
                    }
                  }
                ]
              }
            ]
          }
        ]
      }
    },
    {
      "fullUrl": "http://example.com/fhir/ServiceRequest/5-biol-monit",
      "resource": {
        "resourceType": "ServiceRequest",
        "id": "5-biol-monit",
        "meta": {
          "profile": [
            "http://fhir.ch/ig/ch-orf/StructureDefinition/ch-orf-servicerequest"
          ]
        },
        "text": {
          "status": "generated",
          "div": "<div xmlns=\"http://www.w3.org/1999/xhtml\"><p><b>Generated Narrative</b></p><p><b>identifier</b>: Placer Identifier: 123, Filler Identifier: 456</p><p><b>status</b>: active</p><p><b>intent</b>: original-order</p><p><b>category</b>: <span title=\"Codes: {http://snomed.info/sct 108252007}\">Laboratory procedure (procedure)</span></p><p><b>priority</b>: urgent</p><p><b>subject</b>: <a href=\"#Patient_BeatBorer\">See above (Patient/BeatBorer)</a></p><p><b>requester</b>: <a href=\"#PractitionerRole_PauloPorcelliniSuva\">See above (PractitionerRole/PauloPorcelliniSuva)</a></p><p><b>reasonCode</b>: <span title=\"Codes: {http://snomed.info/sct 409967009}\">Toxicology (qualifier value)</span></p><p><b>insurance</b>: <a href=\"Coverage-HealthInsuranceCard.html\">A human-readable rendering of the European Health Insurance CardGenerated Summary: id: A123456780; status: active; <span title=\"Codes: {http://terminology.hl7.org/CodeSystem/v3-ActCode EHCPOL}\">extended healthcare</span>; period: ?ngen-2? --&gt; 2012-03-17</a></p><p><b>specimen</b>: </p><ul><li><a href=\"Specimen-blood.html\">Generated Summary: status: available; <span title=\"Codes: {http://snomed.info/sct 119297000}\">Blood sample</span></a></li><li><a href=\"Specimen-urin.html\">Generated Summary: id: 11111-15394-75465; id: 22222-bc987-dd888; status: available; <span title=\"Codes: {http://snomed.info/sct 122575003}\">Urine sample</span>; receivedTime: Aug 16, 2020, 6:40:17 PM; Specimen is grossly lipemic</a></li></ul></div>"
        },
        "identifier": [
          {
            "type": {
              "coding": [
                {
                  "system": "http://terminology.hl7.org/CodeSystem/v2-0203",
                  "code": "PLAC",
                  "display": "Placer Identifier"
                }
              ]
            },
            "system": "urn:oid:1.3.4.5.6.7",
            "value": "123"
          },
          {
            "type": {
              "coding": [
                {
                  "system": "http://terminology.hl7.org/CodeSystem/v2-0203",
                  "code": "FILL",
                  "display": "Filler Identifier"
                }
              ]
            },
            "system": "urn:oid:7.8.9.10.11",
            "value": "456"
          }
        ],
        "status": "active",
        "intent": "original-order",
        "category": [
          {
            "coding": [
              {
                "system": "http://snomed.info/sct",
                "code": "108252007"
              }
            ],
            "text": "Laboratory procedure (procedure)"
          }
        ],
        "priority": "urgent",
        "subject": {
          "reference": "Patient/BeatBorer"
        },
        "requester": {
          "reference": "PractitionerRole/PauloPorcelliniSuva"
        },
        "reasonCode": [
          {
            "coding": [
              {
                "system": "http://snomed.info/sct",
                "code": "409967009"
              }
            ],
            "text": "Toxicology (qualifier value)"
          }
        ],
        "insurance": [
          {
            "reference": "Coverage/HealthInsuranceCard"
          }
        ],
        "specimen": [
          {
            "reference": "Specimen/blood"
          },
          {
            "reference": "Specimen/urin"
          }
        ]
      }
    }
  ]
}