<?xml version="1.0" encoding="UTF-8"?>

<Bundle xmlns="http://hl7.org/fhir">
  <id value="3-gyn"/>
  <meta>
    <versionId value="1"/>
    <lastUpdated value="2019-04-01T20:18:41.341+00:00"/>
    <profile value="http://fhir.ch/ig/ch-orf/StructureDefinition/ch-orf-document"/>
  </meta>
  <identifier>
    <system value="urn:ietf:rfc:3986"/>
    <value value="urn:uuid:26d3dff7-ab05-4737-a49c-5eccd33595f8"/>
  </identifier>
  <type value="document"/>
  <timestamp value="2019-04-01T20:18:41.341+00:00"/>
  <entry>
    <fullUrl value="http://example.com/fhir/Composition/3-gyn"/>
    <resource>
      <Composition>
        <id value="3-gyn"/>
        <meta>
          <versionId value="1"/>
          <lastUpdated value="2021-02-18T17:04:38.520+00:00"/>
          <profile value="http://fhir.ch/ig/ch-orf/StructureDefinition/ch-orf-composition"/>
        </meta>
        <text>
          <status value="additional"/><div xmlns="http://www.w3.org/1999/xhtml"><div>Laboratory Order</div></div>
        </text>
        <extension url="http://fhir.ch/ig/ch-core/StructureDefinition/ch-ext-epr-dataenterer">
          <extension url="enterer">
            <valueReference>
              <reference value="PractitionerRole/PeterPapGruppenpraxis"/>
            </valueReference>
          </extension>
        </extension>
        <extension url="http://fhir.ch/ig/ch-orf/StructureDefinition/ch-orf-receiver">
          <valueReference>
            <reference value="PractitionerRole/EvaErlenmeyerLaborPipette"/>
          </valueReference>
        </extension>
        <extension url="http://fhir.ch/ig/ch-orf/StructureDefinition/ch-orf-copyreceiver">
          <valueReference>
            <reference value="Organization/Gruppenpraxis"/>
          </valueReference>
        </extension>
        <status value="final"/>
        <type>
          <coding>
            <system value="http://snomed.info/sct"/>
            <code value="721965002"/>
            <display value="Laboratory order (record artifact)"/>
          </coding>
        </type>
        <category>
          <coding>
            <system value="http://snomed.info/sct"/>
            <code value="721963009"/>
            <display value="Order (record artifact)"/>
          </coding>
        </category>
        <subject>
          <reference value="Patient/MarinaRubella"/>
        </subject>
        <date value="2020-03-31T11:46:09+02:00"/>
        <author>
          <reference value="PractitionerRole/PeterPapGruppenpraxis"/>
        </author>
        <title value="Referral 3-gyn"/>
        <section>
          <title value="Order-Referral-Form 3-gyn"/>
          <code>
            <coding>
              <system value="http://loinc.org"/>
              <code value="93037-0"/>
              <display value="Portable medical order form"/>
            </coding>
          </code>
          <text>
            <status value="generated"/><div xmlns="http://www.w3.org/1999/xhtml">Order-Referral-Form 3-gyn</div>
          </text>
          <entry>
            <reference value="Questionnaire/3-gyn"/>
          </entry>
          <entry>
            <reference value="QuestionnaireResponse/3-gyn"/>
          </entry>
          <entry>
            <reference value="ServiceRequest/3-gyn"/>
          </entry>
        </section>
      </Composition>
    </resource>
  </entry>
  <entry>
    <fullUrl value="http://example.com/fhir/Patient/MarinaRubella"/>
    <resource>
      <Patient>
        <id value="MarinaRubella"/>
        <meta>
          <profile value="http://fhir.ch/ig/ch-core/StructureDefinition/ch-core-patient"/>
        </meta>
        <text>
          <status value="extensions"/><div xmlns="http://www.w3.org/1999/xhtml"><p><b>Generated Narrative</b></p><p><b>Birth Place</b>: Mendrisio Schweiz </p><p><b>Place of origin according to eCH-0011</b>: Airolo TI </p><p><b>religion</b>: <span title="Codes: {http://terminology.hl7.org/CodeSystem/v3-ReligiousAffiliation 1077}">Protestant</span></p><p><b>identifier</b>: Medical record number: 012/08.111106</p><p><b>name</b>: Marina Rubella (OFFICIAL), Meier (MAIDEN)</p><p><b>gender</b>: female</p><p><b>birthDate</b>: 1992-08-08</p><p><b>maritalStatus</b>: <span title="Codes: {http://fhir.ch/ig/ch-core/CodeSystem/ech-11-maritalstatus 2}">verheiratet</span></p><h3>Communications</h3><table class="grid"><tr><td>-</td><td><b>Language</b></td><td><b>Preferred</b></td></tr><tr><td>*</td><td><span title="Codes: {urn:ietf:bcp:47 it-CH}">Italienisch (Schweiz)</span></td><td>true</td></tr></table></div>
        </text>
        <extension url="http://hl7.org/fhir/StructureDefinition/patient-birthPlace">
          <valueAddress>
            <city value="Mendrisio"/>
            <country value="Schweiz"/>
          </valueAddress>
        </extension>
        <extension url="http://fhir.ch/ig/ch-core/StructureDefinition/ch-core-patient-ech-11-placeoforigin">
          <valueAddress>
            <city value="Airolo"/>
            <state value="TI"/>
          </valueAddress>
        </extension>
        <extension url="http://hl7.org/fhir/StructureDefinition/patient-religion">
          <valueCodeableConcept>
            <coding>
              <system value="http://terminology.hl7.org/CodeSystem/v3-ReligiousAffiliation"/>
              <code value="1077"/>
              <display value="Protestant"/>
            </coding>
          </valueCodeableConcept>
        </extension>
        <identifier>
          <type>
            <coding>
              <system value="http://terminology.hl7.org/CodeSystem/v2-0203"/>
              <code value="MR"/>
            </coding>
          </type>
          <system value="urn:oid:2.16.756.5.30.999999.1"/>
          <value value="012/08.111106"/>
        </identifier>
        <name>
          <use value="official"/>
          <family value="Rubella">
            <extension url="http://fhir.ch/ig/ch-core/StructureDefinition/ch-ext-ech-11-name">
              <valueCode value="officialName"/>
            </extension>
          </family>
          <given value="Marina">
            <extension url="http://fhir.ch/ig/ch-core/StructureDefinition/ch-ext-ech-11-firstname">
              <valueCode value="officialFirstName"/>
            </extension>
          </given>
        </name>
        <name>
          <use value="maiden"/>
          <family value="Meier">
            <extension url="http://fhir.ch/ig/ch-core/StructureDefinition/ch-ext-ech-11-name">
              <valueCode value="originalName"/>
            </extension>
          </family>
        </name>
        <gender value="female"/>
        <birthDate value="1992-08-08"/>
        <maritalStatus>
          <coding>
            <system value="http://fhir.ch/ig/ch-core/CodeSystem/ech-11-maritalstatus"/>
            <code value="2"/>
            <display value="verheiratet"/>
          </coding>
        </maritalStatus>
        <communication>
          <language>
            <coding>
              <system value="urn:ietf:bcp:47"/>
              <code value="it-CH"/>
            </coding>
            <text value="Italienisch (Schweiz)"/>
          </language>
          <preferred value="true"/>
        </communication>
      </Patient>
    </resource>
  </entry>
  <entry>
    <fullUrl value="http://example.com/fhir/Practitioner/PeterPap"/>
    <resource>
      <Practitioner>
        <id value="MarcApgar"/>
        <meta>
          <profile value="http://fhir.ch/ig/ch-core/StructureDefinition/ch-core-practitioner"/>
        </meta>
        <text>
          <status value="generated"/><div xmlns="http://www.w3.org/1999/xhtml"><p><b>Generated Narrative</b></p><p><b>identifier</b>: id: 7601000050717</p><p><b>name</b>: Marc Agpar </p><p><b>telecom</b>: <a href="mailto:marc.apgar@spitalseeblick.ch">marc.apgar@spitalseeblick.ch</a></p></div>
        </text>
        <identifier>
          <system value="urn:oid:2.51.1.3"/>
          <value value="7601000050717"/>
        </identifier>
        <name>
          <family value="Agpar"/>
          <given value="Marc"/>
        </name>
        <telecom>
          <system value="email"/>
          <value value="marc.apgar@spitalseeblick.ch"/>
          <use value="work"/>
        </telecom>
      </Practitioner>
    </resource>
  </entry>
  <entry>
    <fullUrl value="http://example.com/fhir/Organization/Gruppenpraxis"/>
    <resource>
      <Organization>
        <id value="Gruppenpraxis"/>
        <meta>
          <profile value="http://fhir.ch/ig/ch-core/StructureDefinition/ch-core-organization"/>
        </meta>
        <text>
          <status value="generated"/><div xmlns="http://www.w3.org/1999/xhtml"><p><b>Generated Narrative</b></p><p><b>name</b>: Gruppenpraxis Olten</p><p><b>address</b>: Gerbergasse 12 Olten 4600 CH </p></div>
        </text>
        <name value="Gruppenpraxis Olten"/>
        <address>
          <line value="Gerbergasse 12"/>
          <city value="Olten"/>
          <postalCode value="4600"/>
          <country value="CH"/>
        </address>
      </Organization>
    </resource>
  </entry>
  <entry>
    <fullUrl value="http://example.com/fhir/PractitionerRole/PeterPapGruppenpraxis"/>
    <resource>
      <PractitionerRole>
        <id value="PeterPapGruppenpraxis"/>
        <meta>
          <profile value="http://fhir.ch/ig/ch-core/StructureDefinition/ch-core-practitionerrole"/>
        </meta>
        <text>
          <status value="generated"/><div xmlns="http://www.w3.org/1999/xhtml"><p><b>Generated Narrative</b></p><p><b>practitioner</b>: <a href="Practitioner-PeterPap.html">Generated Summary: id: 7601000050703; Peter Pap (OFFICIAL); Phone: 032 333 22 40, peter.pap@gruppenpraxis.ch</a></p><p><b>organization</b>: <a href="#Organization_Gruppenpraxis">See above (Organization/Gruppenpraxis)</a></p></div>
        </text>
        <practitioner>
          <reference value="Practitioner/PeterPap"/>
        </practitioner>
        <organization>
          <reference value="Organization/Gruppenpraxis"/>
        </organization>
      </PractitionerRole>
    </resource>
  </entry>
  <entry>
    <fullUrl value="http://example.com/fhir/Questionnaire/3-gyn"/>
    <resource>
      <Composition>
        <id value="3-gyn"/>
        <meta>
          <versionId value="1"/>
          <lastUpdated value="2021-02-18T17:04:38.520+00:00"/>
          <profile value="http://fhir.ch/ig/ch-orf/StructureDefinition/ch-orf-composition"/>
        </meta>
        <text>
          <status value="additional"/><div xmlns="http://www.w3.org/1999/xhtml"><div>Laboratory Order</div></div>
        </text>
        <extension url="http://fhir.ch/ig/ch-core/StructureDefinition/ch-ext-epr-dataenterer">
          <extension url="enterer">
            <valueReference>
              <reference value="PractitionerRole/PeterPapGruppenpraxis"/>
            </valueReference>
          </extension>
        </extension>
        <extension url="http://fhir.ch/ig/ch-orf/StructureDefinition/ch-orf-receiver">
          <valueReference>
            <reference value="PractitionerRole/EvaErlenmeyerLaborPipette"/>
          </valueReference>
        </extension>
        <extension url="http://fhir.ch/ig/ch-orf/StructureDefinition/ch-orf-copyreceiver">
          <valueReference>
            <reference value="Organization/Gruppenpraxis"/>
          </valueReference>
        </extension>
        <status value="final"/>
        <type>
          <coding>
            <system value="http://snomed.info/sct"/>
            <code value="721965002"/>
            <display value="Laboratory order (record artifact)"/>
          </coding>
        </type>
        <category>
          <coding>
            <system value="http://snomed.info/sct"/>
            <code value="721963009"/>
            <display value="Order (record artifact)"/>
          </coding>
        </category>
        <subject>
          <reference value="Patient/MarinaRubella"/>
        </subject>
        <date value="2020-03-31T11:46:09+02:00"/>
        <author>
          <reference value="PractitionerRole/PeterPapGruppenpraxis"/>
        </author>
        <title value="Referral 3-gyn"/>
        <section>
          <title value="Order-Referral-Form 3-gyn"/>
          <code>
            <coding>
              <system value="http://loinc.org"/>
              <code value="93037-0"/>
              <display value="Portable medical order form"/>
            </coding>
          </code>
          <text>
            <status value="generated"/><div xmlns="http://www.w3.org/1999/xhtml">Order-Referral-Form 3-gyn</div>
          </text>
          <entry>
            <reference value="Questionnaire/3-gyn"/>
          </entry>
          <entry>
            <reference value="QuestionnaireResponse/3-gyn"/>
          </entry>
          <entry>
            <reference value="ServiceRequest/3-gyn"/>
          </entry>
        </section>
      </Composition>
    </resource>
  </entry>
  <entry>
    <fullUrl value="http://example.com/fhir/QuestionnaireResponse/3-gyn"/>
    <resource>
      <Composition>
        <id value="3-gyn"/>
        <meta>
          <versionId value="1"/>
          <lastUpdated value="2021-02-18T17:04:38.520+00:00"/>
          <profile value="http://fhir.ch/ig/ch-orf/StructureDefinition/ch-orf-composition"/>
        </meta>
        <text>
          <status value="additional"/><div xmlns="http://www.w3.org/1999/xhtml"><div>Laboratory Order</div></div>
        </text>
        <extension url="http://fhir.ch/ig/ch-core/StructureDefinition/ch-ext-epr-dataenterer">
          <extension url="enterer">
            <valueReference>
              <reference value="PractitionerRole/PeterPapGruppenpraxis"/>
            </valueReference>
          </extension>
        </extension>
        <extension url="http://fhir.ch/ig/ch-orf/StructureDefinition/ch-orf-receiver">
          <valueReference>
            <reference value="PractitionerRole/EvaErlenmeyerLaborPipette"/>
          </valueReference>
        </extension>
        <extension url="http://fhir.ch/ig/ch-orf/StructureDefinition/ch-orf-copyreceiver">
          <valueReference>
            <reference value="Organization/Gruppenpraxis"/>
          </valueReference>
        </extension>
        <status value="final"/>
        <type>
          <coding>
            <system value="http://snomed.info/sct"/>
            <code value="721965002"/>
            <display value="Laboratory order (record artifact)"/>
          </coding>
        </type>
        <category>
          <coding>
            <system value="http://snomed.info/sct"/>
            <code value="721963009"/>
            <display value="Order (record artifact)"/>
          </coding>
        </category>
        <subject>
          <reference value="Patient/MarinaRubella"/>
        </subject>
        <date value="2020-03-31T11:46:09+02:00"/>
        <author>
          <reference value="PractitionerRole/PeterPapGruppenpraxis"/>
        </author>
        <title value="Referral 3-gyn"/>
        <section>
          <title value="Order-Referral-Form 3-gyn"/>
          <code>
            <coding>
              <system value="http://loinc.org"/>
              <code value="93037-0"/>
              <display value="Portable medical order form"/>
            </coding>
          </code>
          <text>
            <status value="generated"/><div xmlns="http://www.w3.org/1999/xhtml">Order-Referral-Form 3-gyn</div>
          </text>
          <entry>
            <reference value="Questionnaire/3-gyn"/>
          </entry>
          <entry>
            <reference value="QuestionnaireResponse/3-gyn"/>
          </entry>
          <entry>
            <reference value="ServiceRequest/3-gyn"/>
          </entry>
        </section>
      </Composition>
    </resource>
  </entry>
  <entry>
    <fullUrl value="http://example.com/fhir/ServiceRequest/3-gyn"/>
    <resource>
      <ServiceRequest>
        <id value="3-gyn"/>
        <meta>
          <profile value="http://fhir.ch/ig/ch-orf/StructureDefinition/ch-orf-servicerequest"/>
        </meta>
        <text>
          <status value="generated"/><div xmlns="http://www.w3.org/1999/xhtml"><p><b>Generated Narrative</b></p><p><b>identifier</b>: Placer Identifier: 123, Filler Identifier: 456</p><p><b>status</b>: active</p><p><b>intent</b>: original-order</p><p><b>category</b>: <span title="Codes: {http://snomed.info/sct 108252007}">Laboratory procedure (procedure)</span></p><p><b>priority</b>: routine</p><p><b>subject</b>: <a href="#Patient_MarinaRubella">See above (Patient/MarinaRubella)</a></p><p><b>requester</b>: <a href="#PractitionerRole_PeterPapGruppenpraxis">See above (PractitionerRole/PeterPapGruppenpraxis)</a></p><p><b>reasonCode</b>: <span title="Codes: {http://snomed.info/sct 702601001}">Routine gynecologic examination (procedure)</span></p><p><b>insurance</b>: <a href="Coverage-HealthInsuranceCard.html">Generated Summary: id: A123456780; status: active; <span title="Codes: {http://terminology.hl7.org/CodeSystem/v3-ActCode EHCPOL}">extended healthcare</span>; period: ?ngen-2? --&gt; 2012-03-17</a></p><p><b>specimen</b>: </p><ul><li><a href="Specimen-cervix-swab.html">Generated Summary: id: 48736-12345-12345; id: 4e88a-12345-aa222; status: available; <span title="Codes: {http://snomed.info/sct 430387006}">Combined specimen of cytologic material from endocervix, ectocervix, and vaginal fornix (specimen)</span></a></li><li><a href="Specimen-blood.html">Generated Summary: status: available; <span title="Codes: {http://snomed.info/sct 119297000}">Blood sample</span></a></li><li><a href="Specimen-serum.html">Generated Summary: id: 48736-12345-75465; id: 4e88a-12345-dd888; status: available; <span title="Codes: {http://snomed.info/sct 119364003}">Serum specimen (specimen)</span></a></li><li><a href="Specimen-urin.html">Generated Summary: id: 11111-15394-75465; id: 22222-bc987-dd888; status: available; <span title="Codes: {http://snomed.info/sct 122575003}">Urine sample</span>; receivedTime: Aug 16, 2020, 6:40:17 PM; Specimen is grossly lipemic</a></li></ul></div>
        </text>
        <identifier>
          <type>
            <coding>
              <system value="http://terminology.hl7.org/CodeSystem/v2-0203"/>
              <code value="PLAC"/>
              <display value="Placer Identifier"/>
            </coding>
          </type>
          <system value="urn:oid:1.3.4.5.6.7"/>
          <value value="123"/>
        </identifier>
        <identifier>
          <type>
            <coding>
              <system value="http://terminology.hl7.org/CodeSystem/v2-0203"/>
              <code value="FILL"/>
              <display value="Filler Identifier"/>
            </coding>
          </type>
          <system value="urn:oid:7.8.9.10.11"/>
          <value value="456"/>
        </identifier>
        <status value="active"/>
        <intent value="original-order"/>
        <category>
          <coding>
            <system value="http://snomed.info/sct"/>
            <code value="108252007"/>
          </coding>
          <text value="Laboratory procedure (procedure)"/>
        </category>
        <priority value="routine"/>
        <subject>
          <reference value="Patient/MarinaRubella"/>
        </subject>
        <requester>
          <reference value="PractitionerRole/PeterPapGruppenpraxis"/>
        </requester>
        <reasonCode>
          <coding>
            <system value="http://snomed.info/sct"/>
            <code value="702601001"/>
          </coding>
          <text value="Routine gynecologic examination (procedure)"/>
        </reasonCode>
        <insurance>
          <reference value="Coverage/HealthInsuranceCard"/>
        </insurance>
        <specimen>
          <reference value="Specimen/cervix-swab"/>
        </specimen>
        <specimen>
          <reference value="Specimen/blood"/>
        </specimen>
        <specimen>
          <reference value="Specimen/serum"/>
        </specimen>
        <specimen>
          <reference value="Specimen/urin"/>
        </specimen>
      </ServiceRequest>
    </resource>
  </entry>
</Bundle>