{"resourceType":"Bundle","id":"3-gyn","meta":{"versionId":"1","lastUpdated":"2019-04-01T20:18:41.341+00:00","profile":["http://fhir.ch/ig/ch-orf/StructureDefinition/ch-orf-document"]},"identifier":{"system":"urn:ietf:rfc:3986","value":"urn:uuid:26d3dff7-ab05-4737-a49c-5eccd33595f8"},"type":"document","timestamp":"2019-04-01T20:18:41.341+00:00","entry":[{"fullUrl":"http://example.com/fhir/Composition/3-gyn","resource":{"resourceType":"Composition","id":"3-gyn","meta":{"versionId":"1","lastUpdated":"2021-02-18T17:04:38.520+00:00","profile":["http://fhir.ch/ig/ch-orf/StructureDefinition/ch-orf-composition"]},"text":{"status":"additional","div":"<div xmlns=\"http://www.w3.org/1999/xhtml\"><div>Laboratory Order</div></div>"},"extension":[{"extension":[{"url":"enterer","valueReference":{"reference":"PractitionerRole/PeterPapGruppenpraxis"}}],"url":"http://fhir.ch/ig/ch-core/StructureDefinition/ch-ext-epr-dataenterer"},{"url":"http://fhir.ch/ig/ch-orf/StructureDefinition/ch-orf-receiver","valueReference":{"reference":"PractitionerRole/EvaErlenmeyerLaborPipette"}},{"url":"http://fhir.ch/ig/ch-orf/StructureDefinition/ch-orf-copyreceiver","valueReference":{"reference":"PractitionerRole/MarcMustermannArztpraxis"}}],"status":"final","type":{"coding":[{"system":"http://snomed.info/sct","code":"721965002","display":"Laboratory order (record artifact)"}]},"category":[{"coding":[{"system":"http://snomed.info/sct","code":"721963009","display":"Order (record artifact)"}]}],"subject":{"reference":"Patient/MarinaRubella"},"date":"2020-03-31T11:46:09+02:00","author":[{"reference":"PractitionerRole/PeterPapGruppenpraxis"}],"title":"Referral 3-gyn","section":[{"title":"Order-Referral-Form 3-gyn","code":{"coding":[{"system":"http://loinc.org","code":"93037-0","display":"Portable medical order form"}]},"text":{"status":"generated","div":"<div xmlns=\"http://www.w3.org/1999/xhtml\">Order-Referral-Form 3-gyn</div>"},"entry":[{"reference":"Questionnaire/3-gyn"},{"reference":"QuestionnaireResponse/3-gyn"},{"reference":"ServiceRequest/3-gyn"}]}]}},{"fullUrl":"http://example.com/fhir/Patient/MarinaRubella","resource":{"resourceType":"Patient","id":"MarinaRubella","meta":{"profile":["http://fhir.ch/ig/ch-core/StructureDefinition/ch-core-patient"]},"text":{"status":"additional","div":"<div xmlns=\"http://www.w3.org/1999/xhtml\"><p><b>id</b>: MarinaRubella</p><p><b>meta</b>:</p><p><b>identifier</b>: 012/08.111113</p><p><b>name</b>: MarinaRubella</p><p><b>gender</b>: FEMALE</p><p><b>birthDate</b>: Aug 08, 1992</p><p><b>maritalStatus</b>: verheiratet <span style=\"background: LightGoldenRodYellow\">(Details : {http://fhir.ch/ig/ch-core/CodeSystem/ech-11-maritalstatus code '2' = '2', given as 'verheiratet'})</span></p><h3>Communications</h3><table class=\"grid\"><tr><td>-</td><td><b>Language</b></td><td><b>Preferred</b></td></tr><tr><td>*</td><td>Italienisch (Schweiz) <span style=\"background: LightGoldenRodYellow\">(Details : {urn:oid:2.16.840.1.113883.6.316 code 'it-CH' = 'Italian (Region=Schweiz))</span></td><td>true</td></tr></table></div>"},"extension":[{"url":"http://hl7.org/fhir/StructureDefinition/patient-birthPlace","valueAddress":{"city":"Mendrisio","country":"Schweiz"}},{"url":"http://fhir.ch/ig/ch-core/StructureDefinition/ch-core-patient-ech-11-placeoforigin","valueAddress":{"city":"Airolo","state":"TI"}},{"url":"http://hl7.org/fhir/StructureDefinition/patient-religion","valueCodeableConcept":{"coding":[{"system":"http://terminology.hl7.org/CodeSystem/v3-ReligiousAffiliation","code":"1077","display":"Protestant"}]}}],"identifier":[{"type":{"coding":[{"system":"http://terminology.hl7.org/CodeSystem/v2-0203","code":"MR"}]},"system":"urn:oid:2.16.756.5.30.999999.1","value":"012/08.111113"}],"name":[{"use":"official","family":"Rubella","_family":{"extension":[{"url":"http://fhir.ch/ig/ch-core/StructureDefinition/ch-ext-ech-11-name","valueCode":"officialName"}]},"given":["Marina"],"_given":[{"extension":[{"url":"http://fhir.ch/ig/ch-core/StructureDefinition/ch-ext-ech-11-firstname","valueCode":"officialFirstName"}]}]},{"use":"maiden","family":"Meier","_family":{"extension":[{"url":"http://fhir.ch/ig/ch-core/StructureDefinition/ch-ext-ech-11-name","valueCode":"originalName"}]}}],"telecom":[{"system":"phone","value":"+41 64 123 45 67","use":"home"},{"system":"email","value":"marina.rubella@example.ch"}],"gender":"female","birthDate":"1992-08-08","address":[{"use":"home","type":"both","line":["Via del bosco 88"],"city":"Airolo","postalCode":"6780"}],"maritalStatus":{"coding":[{"system":"http://fhir.ch/ig/ch-core/CodeSystem/ech-11-maritalstatus","code":"2","display":"verheiratet"}]},"communication":[{"language":{"coding":[{"system":"urn:oid:2.16.840.1.113883.6.316","code":"it-CH"}],"text":"Italienisch (Schweiz)"},"preferred":true}]}},{"fullUrl":"http://example.com/fhir/Practitioner/PeterPap","resource":{"resourceType":"Practitioner","id":"PeterPap","meta":{"profile":["http://fhir.ch/ig/ch-core/StructureDefinition/ch-core-practitioner"]},"text":{"status":"generated","div":"<div xmlns=\"http://www.w3.org/1999/xhtml\"><p><b>Generated Narrative</b></p><div style=\"display: inline-block; background-color: #d9e0e7; padding: 6px; margin: 4px; border: 1px solid #8da1b4; border-radius: 5px; line-height: 60%\"><p style=\"margin-bottom: 0px\">Resource \"PeterPap\" </p><p style=\"margin-bottom: 0px\">Profile: <a href=\"http://fhir.ch/ig/ch-core/StructureDefinition-ch-core-practitioner.html\">CH Core Practitioner Profile</a></p></div><p><b>identifier</b>: id: 7601000050703, id: A123305</p><p><b>name</b>: Peter Pap (OFFICIAL)</p><p><b>telecom</b>: ph: 032 333 22 40(WORK), <a href=\"mailto:peter.pap@gruppenpraxis.ch\">peter.pap@gruppenpraxis.ch</a></p></div>"},"identifier":[{"system":"urn:oid:2.51.1.3","value":"7601000050703"},{"system":"urn:oid:2.16.756.5.30.1.123.100.2.1.1","value":"A123305"}],"name":[{"use":"official","family":"Pap","given":["Peter"],"prefix":["Dr. med."],"_prefix":[{"extension":[{"url":"http://hl7.org/fhir/StructureDefinition/iso21090-EN-qualifier","valueCode":"AC"}]}]}],"telecom":[{"system":"phone","value":"032 333 22 40","use":"work"},{"system":"email","value":"peter.pap@gruppenpraxis.ch","use":"work"}]}},{"fullUrl":"http://example.com/fhir/Organization/Gruppenpraxis","resource":{"resourceType":"Organization","id":"Gruppenpraxis","meta":{"profile":["http://fhir.ch/ig/ch-core/StructureDefinition/ch-core-organization-epr"]},"text":{"status":"generated","div":"<div xmlns=\"http://www.w3.org/1999/xhtml\"><p><b>Generated Narrative</b></p><div style=\"display: inline-block; background-color: #d9e0e7; padding: 6px; margin: 4px; border: 1px solid #8da1b4; border-radius: 5px; line-height: 60%\"><p style=\"margin-bottom: 0px\">Resource \"Gruppenpraxis\" </p><p style=\"margin-bottom: 0px\">Profile: <a href=\"http://fhir.ch/ig/ch-core/StructureDefinition-ch-core-organization-epr.html\">CH Core Organization Profile EPR</a></p></div><p><b>identifier</b>: id: 7601000241111</p><p><b>name</b>: Gruppenpraxis Olten</p><p><b>telecom</b>: <a href=\"tel:+41555556677\">+41555556677</a>, <a href=\"mailto:info@gruppenpraxis.ch\">info@gruppenpraxis.ch</a>, <a href=\"http://www.gruppenpraxis.ch\">http://www.gruppenpraxis.ch</a></p><p><b>address</b>: Gerbergasse 12 Olten 4600 CH </p></div>"},"identifier":[{"system":"urn:oid:2.51.1.3","value":"7601000241111"}],"name":"Gruppenpraxis Olten","telecom":[{"system":"phone","value":"+41555556677","use":"work"},{"system":"email","value":"info@gruppenpraxis.ch","use":"work"},{"system":"url","value":"http://www.gruppenpraxis.ch","use":"work"}],"address":[{"line":["Gerbergasse 12"],"city":"Olten","postalCode":"4600","country":"CH"}]}},{"fullUrl":"http://example.com/fhir/PractitionerRole/PeterPapGruppenpraxis","resource":{"resourceType":"PractitionerRole","id":"PeterPapGruppenpraxis","meta":{"profile":["http://fhir.ch/ig/ch-core/StructureDefinition/ch-core-practitionerrole"]},"text":{"status":"generated","div":"<div xmlns=\"http://www.w3.org/1999/xhtml\"><p><b>Generated Narrative</b></p><div style=\"display: inline-block; background-color: #d9e0e7; padding: 6px; margin: 4px; border: 1px solid #8da1b4; border-radius: 5px; line-height: 60%\"><p style=\"margin-bottom: 0px\">Resource \"PeterPapGruppenpraxis\" </p><p style=\"margin-bottom: 0px\">Profile: <a href=\"http://fhir.ch/ig/ch-core/StructureDefinition-ch-core-practitionerrole.html\">CH Core Practitioner Role Profile</a></p></div><p><b>practitioner</b>: <a href=\"#Practitioner_PeterPap\">See above (Practitioner/PeterPap)</a></p><p><b>organization</b>: <a href=\"#Organization_Gruppenpraxis\">See above (Organization/Gruppenpraxis)</a></p></div>"},"practitioner":{"reference":"Practitioner/PeterPap"},"organization":{"reference":"Organization/Gruppenpraxis"}}},{"fullUrl":"http://example.com/fhir/Questionnaire/3-gyn","resource":{"resourceType":"Questionnaire","id":"3-gyn","meta":{"versionId":"1","lastUpdated":"2019-04-01T20:17:53.340+00:00","profile":["http://fhir.ch/ig/ch-orf/StructureDefinition/ch-orf-questionnaire","http://hl7.org/fhir/uv/sdc/StructureDefinition/sdc-questionnaire","http://hl7.org/fhir/uv/sdc/StructureDefinition/sdc-questionnaire-extract"]},"text":{"status":"extensions","div":"<div xmlns=\"http://www.w3.org/1999/xhtml\"><p><b>Generated Narrative</b></p><div style=\"display: inline-block; background-color: #d9e0e7; padding: 6px; margin: 4px; border: 1px solid #8da1b4; border-radius: 5px; line-height: 60%\"><p style=\"margin-bottom: 0px\">Resource \"3-gyn\" Version \"1\" Updated \"2019-04-01T22:17:53.34+02:00\" </p><p style=\"margin-bottom: 0px\">Profiles: <a href=\"http://fhir.ch/ig/ch-orf/StructureDefinition-ch-orf-questionnaire.html\">CH ORF Questionnaire</a>, <a href=\"http://hl7.org/fhir/uv/sdc/2019May/sdc-questionnaire.html\">Questionnaire</a>, <a href=\"http://hl7.org/fhir/uv/sdc/2019May/sdc-questionnaire-extract.html\">Extractable Questionnaire</a></p></div><p><b>Target structure map</b>: <a href=\"http://fhir.ch/ig/ch-orf/StructureMap-OrfQrToBundle.html\">OrfQrToBundle</a></p><p><b>Source structure map</b>: <a href=\"http://fhir.ch/ig/ch-orf/StructureMap/OrfPrepopBundleToQr\">http://fhir.ch/ig/ch-orf/StructureMap/OrfPrepopBundleToQr</a></p><blockquote><p><b>Launch context resources</b></p><p><b>value</b>: Bundle</p><p><b>value</b>: Bundle</p><p><b>value</b>: The Bundle that is to be used to pre-populate the form</p></blockquote><p><b>url</b>: <code>http://fhir.ch/ig/ch-lab-order/Questionnaire/3-gyn</code></p><p><b>version</b>: 0.9.1</p><p><b>name</b>: LabOrderFormExample</p><p><b>title</b>: Lab Order Form Example</p><p><b>status</b>: active</p><p><b>subjectType</b>: Patient</p><p><b>date</b>: 2020-12-17</p><p><b>publisher</b>: HL7 Switzerland</p><p><b>contact</b>: HL7 Switzerland: <a href=\"https://www.hl7.ch/\">https://www.hl7.ch/</a></p><p><b>jurisdiction</b>: Switzerland <span style=\"background: LightGoldenRodYellow; margin: 4px; border: 1px solid khaki\"> (unknown#CH)</span></p><p><b>copyright</b>: CC-BY-SA-4.0</p><blockquote><p><b>item</b></p><p><b>linkId</b>: order</p><p><b>text</b>: Auftrag</p><p><b>type</b>: group</p><p><b>required</b>: true</p><blockquote><p><b>item</b></p><p><b>linkId</b>: order.placerOrderIdentifier</p><p><b>text</b>: Auftragsnummer des Auftraggebers</p><p><b>type</b>: string</p></blockquote><blockquote><p><b>item</b></p><p><b>hidden</b>: true</p><p><b>linkId</b>: order.placerOrderIdentifierDomain</p><p><b>text</b>: Identifier Domain der Auftragsnummer des Auftraggebers</p><p><b>type</b>: string</p></blockquote><blockquote><p><b>item</b></p><p><b>linkId</b>: order.fillerOrderIdentifier</p><p><b>text</b>: Auftragsnummer des Auftragsempfängers</p><p><b>type</b>: string</p></blockquote><blockquote><p><b>item</b></p><p><b>hidden</b>: true</p><p><b>linkId</b>: order.fillerOrderIdentifierDomain</p><p><b>text</b>: Identifier Domain der Auftragsnummer des Auftragsempfängers</p><p><b>type</b>: string</p></blockquote><blockquote><p><b>item</b></p><p><b>hidden</b>: true</p><p><b>linkId</b>: order.precedentDocumentIdentifier</p><p><b>text</b>: Identifier des Vorgängerdokuments</p><p><b>type</b>: string</p></blockquote><blockquote><p><b>item</b></p><p><b>linkId</b>: order.notificationContactDocument</p><p><b>text</b>: Dringender Benachrichtigungskontakt für dieses Dokument</p><p><b>type</b>: group</p></blockquote><blockquote><p><b>item</b></p><p><b>linkId</b>: order.notificationContactDocumentResponse</p><p><b>text</b>: Dringender Benachrichtigungskontakt für die Antwort auf dieses Dokument</p><p><b>type</b>: group</p></blockquote><blockquote><p><b>item</b></p><p><b>linkId</b>: order.priority</p><p><b>text</b>: Auftragspriorität</p><p><b>type</b>: choice</p></blockquote></blockquote><blockquote><p><b>item</b></p><p><b>linkId</b>: receiver</p><p><b>text</b>: Empfänger</p><p><b>type</b>: group</p><blockquote><p><b>item</b></p><p><b>linkId</b>: receiver.practitioner</p><p><b>text</b>: Empfangende Person</p><p><b>type</b>: group</p></blockquote><blockquote><p><b>item</b></p><p><b>linkId</b>: receiver.organization</p><p><b>text</b>: Empfangende Organisation</p><p><b>type</b>: group</p></blockquote></blockquote><blockquote><p><b>item</b></p><p><b>linkId</b>: patient</p><p><b>text</b>: Patient</p><p><b>type</b>: group</p><p><b>required</b>: true</p><blockquote><p><b>item</b></p><p><b>linkId</b>: patient.familyName</p><p><b>text</b>: Name</p><p><b>type</b>: string</p></blockquote><blockquote><p><b>item</b></p><p><b>linkId</b>: patient.maidenName</p><p><b>text</b>: Ledigname</p><p><b>type</b>: string</p></blockquote><blockquote><p><b>item</b></p><p><b>linkId</b>: patient.givenName</p><p><b>text</b>: Vorname</p><p><b>type</b>: string</p></blockquote><blockquote><p><b>item</b></p><p><b>linkId</b>: patient.localPid</p><p><b>text</b>: Lokale Patienten-ID</p><p><b>type</b>: string</p></blockquote><blockquote><p><b>item</b></p><p><b>linkId</b>: patient.birthDate</p><p><b>text</b>: Geburtsdatum</p><p><b>type</b>: date</p></blockquote><blockquote><p><b>item</b></p><p><b>linkId</b>: patient.gender</p><p><b>text</b>: Geschlecht</p><p><b>type</b>: choice</p></blockquote><blockquote><p><b>item</b></p><p><b>linkId</b>: patient.maritalStatus</p><p><b>definition</b>: <a href=\"http://fhir.ch/ig/ch-core/StructureDefinition-ch-core-patient.html\">CH Core Patient Profile</a></p><p><b>text</b>: Zivilstand</p><p><b>type</b>: choice</p></blockquote><blockquote><p><b>item</b></p><p><b>linkId</b>: patient.phone</p><p><b>text</b>: Telefon</p><p><b>type</b>: string</p></blockquote><blockquote><p><b>item</b></p><p><b>linkId</b>: patient.email</p><p><b>text</b>: E-Mail</p><p><b>type</b>: string</p></blockquote><blockquote><p><b>item</b></p><p><b>linkId</b>: patient.streetAddressLine</p><p><b>text</b>: Strasse, Hausnummer, Postfach etc.</p><p><b>type</b>: string</p><p><b>repeats</b>: true</p></blockquote><blockquote><p><b>item</b></p><p><b>linkId</b>: patient.postalCode</p><p><b>text</b>: PLZ</p><p><b>type</b>: string</p></blockquote><blockquote><p><b>item</b></p><p><b>linkId</b>: patient.city</p><p><b>text</b>: Ort</p><p><b>type</b>: string</p></blockquote><blockquote><p><b>item</b></p><p><b>linkId</b>: patient.country</p><p><b>text</b>: Land</p><p><b>type</b>: string</p></blockquote><blockquote><p><b>item</b></p><p><b>linkId</b>: patient.languageOfCorrespondance</p><p><b>definition</b>: <a href=\"http://fhir.ch/ig/ch-core/StructureDefinition-ch-core-patient.html\">CH Core Patient Profile</a></p><p><b>text</b>: Korrespondenssprache</p><p><b>type</b>: choice</p><p><b>answerValueSet</b>: <a href=\"http://fhir.ch/ig/ch-epr-term/ValueSet-DocumentEntry.languageCode.html\">DocumentEntry.languageCode</a></p></blockquote><blockquote><p><b>item</b></p><p><b>linkId</b>: patient.contactperson</p><p><b>definition</b>: <a href=\"http://fhir.ch/ig/ch-core/StructureDefinition-ch-core-patient.html\">CH Core Patient Profile</a></p><p><b>text</b>: Kontaktperson</p><p><b>type</b>: group</p></blockquote></blockquote><blockquote><p><b>item</b></p><p><b>linkId</b>: sender</p><p><b>text</b>: Absender</p><p><b>type</b>: group</p><p><b>required</b>: true</p><blockquote><p><b>item</b></p><p><b>linkId</b>: sender.author</p><p><b>text</b>: Verantwortlicher</p><p><b>type</b>: group</p><p><b>required</b>: true</p></blockquote><blockquote><p><b>item</b></p><p><b>linkId</b>: sender.dataenterer</p><p><b>text</b>: Erfasser</p><p><b>type</b>: group</p></blockquote></blockquote><blockquote><p><b>item</b></p><p><b>linkId</b>: receiverCopies</p><p><b>text</b>: Kopieempfänger</p><p><b>type</b>: group</p><blockquote><p><b>item</b></p><p><b>linkId</b>: receiverCopy</p><p><b>definition</b>: <a href=\"http://fhir.ch/ig/ch-core/StructureDefinition-ch-core-practitionerrole.html\">CH Core Practitioner Role Profile</a></p><p><b>text</b>: Kopieempfangende Organisation oder Person</p><p><b>type</b>: group</p><p><b>repeats</b>: true</p></blockquote><blockquote><p><b>item</b></p><p><b>linkId</b>: receiverCopy.patient</p><p><b>definition</b>: <a href=\"http://fhir.ch/ig/ch-core/StructureDefinition-ch-core-patient.html\">CH Core Patient Profile</a></p><p><b>text</b>: Patient selbst</p><p><b>type</b>: boolean</p></blockquote><blockquote><p><b>item</b></p><p><b>linkId</b>: receiverCopy.relatedPerson</p><p><b>definition</b>: <a href=\"http://hl7.org/fhir/R4/relatedperson.html\">RelatedPerson</a></p><p><b>text</b>: Andere Person</p><p><b>type</b>: group</p><p><b>repeats</b>: true</p></blockquote></blockquote><blockquote><p><b>item</b></p><p><b>linkId</b>: consent</p><p><b>definition</b>: <a href=\"StructureDefinition-ch-lab-order-servicerequest.html\">CH LAB-Order ServiceRequest</a></p><p><b>text</b>: Einverständniserklärung</p><p><b>type</b>: group</p><h3>Items</h3><table class=\"grid\"><tr><td>-</td><td><b>LinkId</b></td><td><b>Text</b></td><td><b>Type</b></td></tr><tr><td>*</td><td>consent.treatment</td><td>Einverständnis des Patienten zur Behandlung</td><td>string</td></tr><tr><td>*</td><td>consent.patientPrivacy</td><td>Einverständnis des Patienten zum Datenschutz</td><td>string</td></tr><tr><td>*</td><td>consent.research</td><td>Einverständnis des Patienten zur Forschung</td><td>string</td></tr><tr><td>*</td><td>consent.advancedCareDirective</td><td>Patientenverfügung</td><td>string</td></tr></table></blockquote><blockquote><p><b>item</b></p><p><b>linkId</b>: coverage</p><p><b>definition</b>: <a href=\"StructureDefinition-ch-lab-order-servicerequest.html\">CH LAB-Order ServiceRequest</a></p><p><b>text</b>: Kostenträger</p><p><b>type</b>: group</p><h3>Items</h3><table class=\"grid\"><tr><td>-</td><td><b>LinkId</b></td><td><b>Text</b></td><td><b>Type</b></td></tr><tr><td>*</td><td>coverage.uvg</td><td>Unfallversicherung (nach UVG)</td><td>string</td></tr><tr><td>*</td><td>coverage.kvg</td><td>Grundversicherung (nach KVG)</td><td>string</td></tr><tr><td>*</td><td>coverage.vvg</td><td>Zusatzversicherung (nach VVG)</td><td>string</td></tr><tr><td>*</td><td>coverage.vvgOther</td><td>Andere (nach VVG)</td><td>string</td></tr></table></blockquote><blockquote><p><b>item</b></p><p><b>linkId</b>: previousResult</p><p><b>definition</b>: <a href=\"StructureDefinition-ch-lab-order-servicerequest.html\">CH LAB-Order ServiceRequest</a></p><p><b>text</b>: Vorheriges Untersuchungsresultat</p><p><b>type</b>: group</p><h3>Items</h3><table class=\"grid\"><tr><td>-</td><td><b>LinkId</b></td><td><b>Text</b></td><td><b>Type</b></td><td><b>Repeats</b></td></tr><tr><td>*</td><td>previousResult.result</td><td>Untersuchungsresultat</td><td>string</td><td>true</td></tr></table></blockquote><blockquote><p><b>item</b></p><p><b>linkId</b>: cytology</p><p><b>text</b>: Cytology and Microbiology</p><p><b>type</b>: group</p><blockquote><p><b>item</b></p><p><b>linkId</b>: cervicalSmear</p><p><b>text</b>: Cervical Smear</p><p><b>type</b>: choice</p><p><b>repeats</b>: true</p></blockquote></blockquote><blockquote><p><b>item</b></p><p><b>linkId</b>: urin</p><p><b>text</b>: Urin</p><p><b>type</b>: group</p><blockquote><p><b>item</b></p><p><b>linkId</b>: combur9</p><p><b>text</b>: Combur-9</p><p><b>type</b>: choice</p><p><b>repeats</b>: true</p></blockquote></blockquote><blockquote><p><b>item</b></p><p><b>linkId</b>: obstetricalPanels</p><p><b>text</b>: Schwangerschaftsvorsorge</p><p><b>type</b>: group</p><blockquote><p><b>item</b></p><p><b>linkId</b>: obstetric</p><p><b>text</b>: Obstetric 1996 panel – Serum and Blood</p><p><b>type</b>: choice</p><p><b>repeats</b>: true</p></blockquote></blockquote></div>"},"extension":[{"url":"http://hl7.org/fhir/uv/sdc/StructureDefinition/sdc-questionnaire-targetStructureMap","valueCanonical":"http://fhir.ch/ig/ch-orf/StructureMap/OrfQrToBundle"},{"url":"http://hl7.org/fhir/uv/sdc/StructureDefinition/sdc-questionnaire-sourceStructureMap","valueCanonical":"http://fhir.ch/ig/ch-orf/StructureMap/OrfPrepopBundleToQr"},{"extension":[{"url":"name","valueId":"Bundle"},{"url":"type","valueCode":"Bundle"},{"url":"description","valueString":"The Bundle that is to be used to pre-populate the form"}],"url":"http://hl7.org/fhir/uv/sdc/StructureDefinition/sdc-questionnaire-launchContext"}],"url":"http://fhir.ch/ig/ch-lab-order/Questionnaire/3-gyn","version":"0.9.1","name":"LabOrderFormExample","title":"Lab Order Form Example","status":"active","subjectType":["Patient"],"date":"2020-12-17","publisher":"HL7 Switzerland","contact":[{"name":"HL7 Switzerland","telecom":[{"system":"url","value":"https://www.hl7.ch/"}]}],"jurisdiction":[{"coding":[{"system":"urn:iso:std:iso:3166","code":"CH"}]}],"copyright":"CC-BY-SA-4.0","item":[{"linkId":"order","text":"Auftrag","type":"group","required":true,"item":[{"linkId":"order.placerOrderIdentifier","text":"Auftragsnummer des Auftraggebers","type":"string"},{"extension":[{"url":"http://hl7.org/fhir/StructureDefinition/questionnaire-hidden","valueBoolean":true}],"linkId":"order.placerOrderIdentifierDomain","text":"Identifier Domain der Auftragsnummer des Auftraggebers","type":"string"},{"linkId":"order.fillerOrderIdentifier","text":"Auftragsnummer des Auftragsempfängers","type":"string"},{"extension":[{"url":"http://hl7.org/fhir/StructureDefinition/questionnaire-hidden","valueBoolean":true}],"linkId":"order.fillerOrderIdentifierDomain","text":"Identifier Domain der Auftragsnummer des Auftragsempfängers","type":"string"},{"extension":[{"url":"http://hl7.org/fhir/StructureDefinition/questionnaire-hidden","valueBoolean":true}],"linkId":"order.precedentDocumentIdentifier","text":"Identifier des Vorgängerdokuments","type":"string"},{"linkId":"order.notificationContactDocument","text":"Dringender Benachrichtigungskontakt für dieses Dokument","type":"group","item":[{"linkId":"order.notificationContactDocument.practitioner","text":"Zu benachrichtigende Person","type":"group","item":[{"linkId":"order.notificationContactDocument.practitioner.title","text":"Titel","type":"string"},{"linkId":"order.notificationContactDocument.practitioner.familyName","text":"Name","type":"string"},{"linkId":"order.notificationContactDocument.practitioner.givenName","text":"Vorname","type":"string"},{"linkId":"order.notificationContactDocument.practitioner.phone","text":"Telefon","type":"string"},{"linkId":"order.notificationContactDocument.practitioner.email","text":"E-Mail","type":"string"}]}]},{"linkId":"order.notificationContactDocumentResponse","text":"Dringender Benachrichtigungskontakt für die Antwort auf dieses Dokument","type":"group","item":[{"linkId":"order.notificationContactDocumentResponse.practitioner","text":"Zu benachrichtigende Person","type":"group","item":[{"linkId":"order.notificationContactDocumentResponse.practitioner.title","text":"Titel","type":"string"},{"linkId":"order.notificationContactDocumentResponse.practitioner.familyName","text":"Name","type":"string"},{"linkId":"order.notificationContactDocumentResponse.practitioner.givenName","text":"Vorname","type":"string"},{"linkId":"order.notificationContactDocumentResponse.practitioner.phone","text":"Telefon","type":"string"},{"linkId":"order.notificationContactDocumentResponse.practitioner.email","text":"E-Mail","type":"string"}]}]},{"linkId":"order.priority","text":"Auftragspriorität","type":"choice","answerOption":[{"valueCoding":{"system":"http://hl7.org/fhir/request-priority","code":"routine","display":"Die Anfrage hat normale Priorität."},"initialSelected":true},{"valueCoding":{"system":"http://hl7.org/fhir/request-priority","code":"urgent","display":"Die Anfrage sollte dringend bearbeitet werden - höhere Priorität als normal."}},{"valueCoding":{"system":"http://hl7.org/fhir/request-priority","code":"asap","display":"Die Anfrage sollte so schnell wie möglich bearbeitet werden - höhere Priorität als dringend."}},{"valueCoding":{"system":"http://hl7.org/fhir/request-priority","code":"stat","display":"Die Anfrage sollte sofort bearbeitet werden - höchstmögliche Priorität. Z.B. bei einem Notfall."}}]}]},{"linkId":"receiver","text":"Empfänger","type":"group","item":[{"linkId":"receiver.practitioner","text":"Empfangende Person","type":"group","item":[{"linkId":"receiver.practitioner.title","text":"Titel","type":"string"},{"linkId":"receiver.practitioner.familyName","text":"Name","type":"string"},{"linkId":"receiver.practitioner.givenName","text":"Vorname","type":"string"},{"linkId":"receiver.practitioner.gln","text":"GLN","type":"string"},{"linkId":"receiver.practitioner.zsr","text":"ZSR","type":"string"},{"linkId":"receiver.practitioner.phone","text":"Telefon","type":"string"},{"linkId":"receiver.practitioner.email","text":"E-Mail","type":"string"}]},{"linkId":"receiver.organization","text":"Empfangende Organisation","type":"group","item":[{"linkId":"receiver.organization.name","text":"Name der Organisation","type":"string"},{"linkId":"receiver.organization.gln","definition":"http://fhir.ch/ig/ch-core/StructureDefinition-ch-core-organization-definitions.html#Organization.identifier:GLN","text":"GLN","type":"string"},{"linkId":"receiver.organization.streetAddressLine","text":"Strasse, Hausnummer, Postfach etc.","type":"string","repeats":true},{"linkId":"receiver.organization.postalCode","text":"PLZ","type":"string"},{"linkId":"receiver.organization.city","text":"Ort","type":"string"},{"linkId":"receiver.organization.country","text":"Land","type":"string"}]}]},{"linkId":"patient","text":"Patient","type":"group","required":true,"item":[{"linkId":"patient.familyName","text":"Name","type":"string"},{"linkId":"patient.maidenName","text":"Ledigname","type":"string"},{"linkId":"patient.givenName","text":"Vorname","type":"string"},{"linkId":"patient.localPid","text":"Lokale Patienten-ID","type":"string"},{"linkId":"patient.birthDate","text":"Geburtsdatum","type":"date"},{"linkId":"patient.gender","text":"Geschlecht","type":"choice","answerOption":[{"valueCoding":{"system":"http://hl7.org/fhir/administrative-gender","code":"male","display":"Männlich"},"initialSelected":true},{"valueCoding":{"system":"http://hl7.org/fhir/administrative-gender","code":"female","display":"Weiblich"}},{"valueCoding":{"system":"http://hl7.org/fhir/administrative-gender","code":"other","display":"Anderes"}}]},{"linkId":"patient.maritalStatus","definition":"http://fhir.ch/ig/ch-core/StructureDefinition/ch-core-patient#Patient.maritalStatus","text":"Zivilstand","type":"choice","answerOption":[{"valueCoding":{"system":"http://fhir.ch/ig/ch-core/CodeSystem/ech-11-maritalstatus","code":"1","display":"ledig"}},{"valueCoding":{"system":"http://fhir.ch/ig/ch-core/CodeSystem/ech-11-maritalstatus","code":"2","display":"verheiratet"}},{"valueCoding":{"system":"http://fhir.ch/ig/ch-core/CodeSystem/ech-11-maritalstatus","code":"3","display":"verwitwet"}},{"valueCoding":{"system":"http://fhir.ch/ig/ch-core/CodeSystem/ech-11-maritalstatus","code":"4","display":"geschieden"}},{"valueCoding":{"system":"http://fhir.ch/ig/ch-core/CodeSystem/ech-11-maritalstatus","code":"5","display":"unverheiratet"}},{"valueCoding":{"system":"http://fhir.ch/ig/ch-core/CodeSystem/ech-11-maritalstatus","code":"6","display":"in eingetragener Partnerschaft"}},{"valueCoding":{"system":"http://fhir.ch/ig/ch-core/CodeSystem/ech-11-maritalstatus","code":"7","display":"aufgelöste Partnerschaft"}},{"valueCoding":{"system":"http://fhir.ch/ig/ch-core/CodeSystem/ech-11-maritalstatus","code":"9","display":"unbekannt"}}]},{"linkId":"patient.phone","text":"Telefon","type":"string"},{"linkId":"patient.email","text":"E-Mail","type":"string"},{"linkId":"patient.streetAddressLine","text":"Strasse, Hausnummer, Postfach etc.","type":"string","repeats":true},{"linkId":"patient.postalCode","text":"PLZ","type":"string"},{"linkId":"patient.city","text":"Ort","type":"string"},{"linkId":"patient.country","text":"Land","type":"string"},{"linkId":"patient.languageOfCorrespondance","definition":"http://fhir.ch/ig/ch-core/StructureDefinition/ch-core-patient#Patient.communication:languageOfCorrespondance","text":"Korrespondenssprache","type":"choice","answerValueSet":"http://fhir.ch/ig/ch-epr-term/ValueSet/DocumentEntry.languageCode"},{"linkId":"patient.contactperson","definition":"http://fhir.ch/ig/ch-core/StructureDefinition/ch-core-patient#Patient.contact","text":"Kontaktperson","type":"group","item":[{"linkId":"patient.contactperson.relationship","definition":"http://fhir.ch/ig/ch-core/StructureDefinition/ch-core-patient#Patient.contact.relationship.text","text":"Beziehung","type":"string"},{"linkId":"patient.contactperson.familyName","definition":"http://fhir.ch/ig/ch-core/StructureDefinition/ch-core-patient#Patient.contact.name.family","text":"Name","type":"string"},{"linkId":"patient.contactperson.givenName","definition":"http://fhir.ch/ig/ch-core/StructureDefinition/ch-core-patient#Patient.contact.name.given","text":"Vorname","type":"string"},{"linkId":"patient.contactperson.phone","definition":"http://fhir.ch/ig/ch-core/StructureDefinition/ch-core-patient#Patient.contact.telecom.value","text":"Telefon","type":"string","repeats":true},{"linkId":"patient.contactperson.email","definition":"http://fhir.ch/ig/ch-core/StructureDefinition/ch-core-patient#Patient.contact.telecom.value","text":"E-Mail","type":"string"}]}]},{"linkId":"sender","text":"Absender","type":"group","required":true,"item":[{"linkId":"sender.author","text":"Verantwortlicher","type":"group","required":true,"item":[{"linkId":"sender.author.practitioner","text":"Verantwortliche Person","type":"group","item":[{"linkId":"sender.author.practitioner.title","text":"Titel","type":"string"},{"linkId":"sender.author.practitioner.familyName","text":"Name","type":"string"},{"linkId":"sender.author.practitioner.givenName","text":"Vorname","type":"string"},{"linkId":"sender.author.practitioner.gln","text":"GLN","type":"string"},{"linkId":"sender.author.practitioner.zsr","text":"ZSR","type":"string"},{"linkId":"sender.author.practitioner.phone","text":"Telefon","type":"string"},{"linkId":"sender.author.practitioner.email","text":"E-Mail","type":"string"}]},{"linkId":"sender.author.organization","text":"Verantwortliche Organisation","type":"group","item":[{"linkId":"sender.author.organization.name","text":"Name der Organisation","type":"string"},{"linkId":"sender.author.organization.streetAddressLine","text":"Strasse, Hausnummer, Postfach etc.","type":"string","repeats":true},{"linkId":"sender.author.organization.postalCode","text":"PLZ","type":"string"},{"linkId":"sender.author.organization.city","text":"Ort","type":"string"},{"linkId":"sender.author.organization.country","text":"Land","type":"string"}]}]},{"linkId":"sender.dataenterer","text":"Erfasser","type":"group","item":[{"linkId":"sender.dataenterer.practitioner","text":"Erfassende Person","type":"group","item":[{"linkId":"sender.dataenterer.practitioner.familyName","text":"Name","type":"string"},{"linkId":"sender.dataenterer.practitioner.givenName","text":"Vorname","type":"string"},{"linkId":"sender.dataenterer.practitioner.phone","text":"Telefon","type":"string"},{"linkId":"sender.dataenterer.practitioner.email","text":"E-Mail","type":"string"}]}]}]},{"linkId":"receiverCopies","text":"Kopieempfänger","type":"group","item":[{"linkId":"receiverCopy","definition":"http://fhir.ch/ig/ch-core/StructureDefinition/ch-core-practitionerrole#PractitionerRole","text":"Kopieempfangende Organisation oder Person","type":"group","repeats":true,"item":[{"linkId":"receiverCopy.organization.name","definition":"http://fhir.ch/ig/ch-core/StructureDefinition/ch-core-practitionerrole#PractitionerRole.practitioner","text":"Name der Organisation","type":"string","item":[{"linkId":"receiverCopy.practitionerRole.practitioner.title","definition":"http://fhir.ch/ig/ch-core/StructureDefinition/ch-core-humanname#HumanName.prefix","text":"Titel","type":"string"},{"linkId":"receiverCopy.practitionerRole.practitioner.familyName","definition":"http://fhir.ch/ig/ch-core/StructureDefinition/ch-core-humanname#HumanName.family","text":"Name","type":"string"},{"linkId":"receiverCopy.practitionerRole.practitioner.givenName","definition":"http://fhir.ch/ig/ch-core/StructureDefinition/ch-core-humanname#HumanName.given","text":"Vorname","type":"string"},{"linkId":"receiverCopy.practitionerRole.practitioner.phone","definition":"http://hl7.org/fhir/StructureDefinition/ContactPoint#ContactPoint.value","text":"Telefon","type":"string"},{"linkId":"receiverCopy.practitionerRole.practitioner.email","definition":"http://hl7.org/fhir/StructureDefinition/ContactPoint#ContactPoint.value","text":"E-Mail","type":"string"}]},{"linkId":"receiverCopy.title","definition":"http://fhir.ch/ig/ch-core/StructureDefinition/ch-core-practitionerrole#PractitionerRole.organization","text":"Titel","type":"string","item":[{"linkId":"receiverCopy.practitionerRole.organization.name","definition":"http://fhir.ch/ig/ch-core/StructureDefinition/ch-core-organization#Organization.name","text":"Name der Organisation","type":"string"},{"linkId":"receiverCopy.practitionerRole.organization.streetAddressLine","definition":"http://fhir.ch/ig/ch-core/StructureDefinition/ch-core-address#Address.line","text":"Strasse, Hausnummer, Postfach etc.","type":"string","repeats":true},{"linkId":"receiverCopy.practitionerRole.organization.postalCode","definition":"http://fhir.ch/ig/ch-core/StructureDefinition/ch-core-address#Address.postalCode","text":"PLZ","type":"string"},{"linkId":"receiverCopy.practitionerRole.organization.city","definition":"http://fhir.ch/ig/ch-core/StructureDefinition/ch-core-address#Address.city","text":"Ort","type":"string"},{"linkId":"receiverCopy.practitionerRole.organization.country","definition":"http://fhir.ch/ig/ch-core/StructureDefinition/ch-core-address#Address.country","text":"Land","type":"string"}]},{"linkId":"receiverCopy.familyName","text":"Name","type":"string"},{"linkId":"receiverCopy.givenName","text":"Vorname","type":"string"},{"linkId":"receiverCopy.phone","text":"Telefon","type":"string"},{"linkId":"receiverCopy.email","text":"E-Mail","type":"string"},{"linkId":"receiverCopy.streetAddressLine","text":"Strasse, Hausnummer, Postfach etc.","type":"string","repeats":true},{"linkId":"receiverCopy.postalCode","text":"PLZ","type":"string"},{"linkId":"receiverCopy.city","text":"Ort","type":"string"},{"linkId":"receiverCopy.country","text":"Land","type":"string"}]},{"linkId":"receiverCopy.patient","definition":"http://fhir.ch/ig/ch-core/StructureDefinition/ch-core-patient#Patient","text":"Patient selbst","type":"boolean"},{"linkId":"receiverCopy.relatedPerson","definition":"http://hl7.org/fhir/StructureDefinition/RelatedPerson#RelatedPerson","text":"Andere Person","type":"group","repeats":true,"item":[{"linkId":"receiverCopy.relatedPerson.familyName","definition":"http://hl7.org/fhir/StructureDefinition/RelatedPerson#RelatedPerson.name.family","text":"Name","type":"string"},{"linkId":"receiverCopy.relatedPerson.givenName","definition":"http://hl7.org/fhir/StructureDefinition/RelatedPerson#RelatedPerson.name.given","text":"Vorame","type":"string"},{"linkId":"receiverCopy.relatedPerson.phone","definition":"http://hl7.org/fhir/StructureDefinition/RelatedPerson#RelatedPerson.telecom.value","text":"Telefon","type":"string","repeats":true},{"linkId":"receiverCopy.relatedPerson.email","definition":"http://hl7.org/fhir/StructureDefinition/RelatedPerson#RelatedPerson.telecom.value","text":"E-Mail","type":"string"},{"linkId":"receiverCopy.relatedPerson.streetAddressLine","definition":"http://hl7.org/fhir/StructureDefinition/RelatedPerson#RelatedPerson.address.line","text":"Strasse, Hausnummer, Postfach etc.","type":"string","repeats":true},{"linkId":"receiverCopy.relatedPerson.postalCode","definition":"http://hl7.org/fhir/StructureDefinition/RelatedPerson#RelatedPerson.address.postalCode","text":"PLZ","type":"string"},{"linkId":"receiverCopy.relatedPerson.city","definition":"http://hl7.org/fhir/StructureDefinition/RelatedPerson#RelatedPerson.address.city","text":"Ort","type":"string"},{"linkId":"receiverCopy.relatedPerson.country","definition":"http://hl7.org/fhir/StructureDefinition/RelatedPerson#RelatedPerson.address.country","text":"Land","type":"string"}]}]},{"linkId":"consent","definition":"http://fhir.ch/ig/ch-lab-order/StructureDefinition/ch-lab-order-servicerequest#ServiceRequest.supportingInfo","text":"Einverständniserklärung","type":"group","item":[{"linkId":"consent.treatment","text":"Einverständnis des Patienten zur Behandlung","type":"string"},{"linkId":"consent.patientPrivacy","text":"Einverständnis des Patienten zum Datenschutz","type":"string"},{"linkId":"consent.research","text":"Einverständnis des Patienten zur Forschung","type":"string"},{"linkId":"consent.advancedCareDirective","text":"Patientenverfügung","type":"string"}]},{"linkId":"coverage","definition":"http://fhir.ch/ig/ch-lab-order/StructureDefinition/ch-lab-order-servicerequest#ServiceRequest.insurance","text":"Kostenträger","type":"group","item":[{"linkId":"coverage.uvg","text":"Unfallversicherung (nach UVG)","type":"string"},{"linkId":"coverage.kvg","text":"Grundversicherung (nach KVG)","type":"string"},{"linkId":"coverage.vvg","text":"Zusatzversicherung (nach VVG)","type":"string"},{"linkId":"coverage.vvgOther","text":"Andere (nach VVG)","type":"string"}]},{"linkId":"previousResult","definition":"http://fhir.ch/ig/ch-lab-order/StructureDefinition/ch-lab-order-servicerequest#ServiceRequest.supportingInfo","text":"Vorheriges Untersuchungsresultat","type":"group","item":[{"linkId":"previousResult.result","text":"Untersuchungsresultat","type":"string","repeats":true}]},{"linkId":"cytology","text":"Cytology and Microbiology","type":"group","item":[{"linkId":"cervicalSmear","text":"Cervical Smear","type":"choice","repeats":true,"answerOption":[{"valueCoding":{"system":"http://loinc.org","code":"86662-4","display":"Pap smear tests - FPAR 2.0 set"}},{"valueCoding":{"system":"http://loinc.org","code":"14503-7","display":"Human papilloma virus 16+18 Ag [Presence] in Cervix"}}]}]},{"linkId":"urin","text":"Urin","type":"group","item":[{"linkId":"combur9","text":"Combur-9","type":"choice","repeats":true,"answerOption":[{"valueCoding":{"system":"http://loinc.org","code":"50556-0","display":"Urinalysis dipstick panel - Urine by Automated test strip"}}]}]},{"linkId":"obstetricalPanels","text":"Schwangerschaftsvorsorge","type":"group","item":[{"linkId":"obstetric","text":"Obstetric 1996 panel – Serum and Blood","type":"choice","repeats":true,"answerOption":[{"valueCoding":{"system":"http://loinc.org","code":"24364-2","display":"Obstetric 1996 Pnl Ser+Bld"}}]}]}]}},{"fullUrl":"http://example.com/fhir/QuestionnaireResponse/3-gyn","resource":{"resourceType":"QuestionnaireResponse","id":"3-gyn","meta":{"versionId":"1","lastUpdated":"2019-04-01T20:17:53.340+00:00","profile":["http://fhir.ch/ig/ch-orf/StructureDefinition/ch-orf-questionnaireresponse"]},"text":{"status":"generated","div":"<div xmlns=\"http://www.w3.org/1999/xhtml\"><p><b>Generated Narrative</b></p><div style=\"display: inline-block; background-color: #d9e0e7; padding: 6px; margin: 4px; border: 1px solid #8da1b4; border-radius: 5px; line-height: 60%\"><p style=\"margin-bottom: 0px\">Resource \"3-gyn\" Version \"1\" Updated \"2019-04-01T22:17:53.34+02:00\" </p><p style=\"margin-bottom: 0px\">Profile: <a href=\"http://fhir.ch/ig/ch-orf/StructureDefinition-ch-orf-questionnaireresponse.html\">CH ORF QuestionnaireResponse</a></p></div><p><b>questionnaire</b>: <a href=\"Questionnaire-3-gyn.html\">Lab Order Form Example</a></p><p><b>status</b>: completed</p><blockquote><p><b>item</b></p><p><b>linkId</b>: order</p><p><b>text</b>: Auftrag</p><blockquote><p><b>item</b></p><p><b>linkId</b>: order.placerOrderIdentifier</p><p><b>text</b>: Auftragsnummer des Auftraggebers</p></blockquote><blockquote><p><b>item</b></p><p><b>linkId</b>: order.placerOrderIdentifierDomain</p><p><b>text</b>: Identifier Domain der Auftragsnummer des Auftraggebers</p></blockquote><blockquote><p><b>item</b></p><p><b>linkId</b>: order.precedentDocumentIdentifier</p><p><b>text</b>: Identifier des Vorgängerdokuments</p></blockquote><blockquote><p><b>item</b></p><p><b>linkId</b>: order.notificationContactDocument</p><p><b>text</b>: Dringender Benachrichtigungskontakt für dieses Dokument</p></blockquote><blockquote><p><b>item</b></p><p><b>linkId</b>: order.notificationContactDocumentResponse</p><p><b>text</b>: Dringender Benachrichtigungskontakt für die Antwort auf dieses Dokument</p></blockquote><blockquote><p><b>item</b></p><p><b>linkId</b>: order.priority</p><p><b>text</b>: Auftragspriorität</p></blockquote></blockquote><blockquote><p><b>item</b></p><p><b>linkId</b>: receiver</p><p><b>text</b>: Empfänger</p><blockquote><p><b>item</b></p><p><b>linkId</b>: receiver.practitioner</p><p><b>text</b>: Empfangende Person</p></blockquote><blockquote><p><b>item</b></p><p><b>linkId</b>: receiver.organization</p><p><b>text</b>: Empfangende Organisation</p></blockquote></blockquote><blockquote><p><b>item</b></p><p><b>linkId</b>: patient</p><p><b>text</b>: Patient</p><blockquote><p><b>item</b></p><p><b>linkId</b>: patient.familyName</p><p><b>text</b>: Name</p></blockquote><blockquote><p><b>item</b></p><p><b>linkId</b>: patient.maidenName</p><p><b>text</b>: Ledigname</p></blockquote><blockquote><p><b>item</b></p><p><b>linkId</b>: patient.givenName</p><p><b>text</b>: Vorname</p></blockquote><blockquote><p><b>item</b></p><p><b>linkId</b>: patient.localPid</p><p><b>text</b>: Lokale Patienten-ID</p></blockquote><blockquote><p><b>item</b></p><p><b>linkId</b>: patient.birthDate</p><p><b>text</b>: Geburtsdatum</p></blockquote><blockquote><p><b>item</b></p><p><b>linkId</b>: patient.gender</p><p><b>text</b>: Geschlecht</p></blockquote><blockquote><p><b>item</b></p><p><b>linkId</b>: patient.maritalStatus</p><p><b>text</b>: Zivilstand</p></blockquote><blockquote><p><b>item</b></p><p><b>linkId</b>: patient.phone</p><p><b>text</b>: Telefon</p></blockquote><blockquote><p><b>item</b></p><p><b>linkId</b>: patient.email</p><p><b>text</b>: E-Mail</p></blockquote><blockquote><p><b>item</b></p><p><b>linkId</b>: patient.streetAddressLine</p><p><b>text</b>: Strasse, Hausnummer, Postfach etc.</p></blockquote><blockquote><p><b>item</b></p><p><b>linkId</b>: patient.postalCode</p><p><b>text</b>: PLZ</p></blockquote><blockquote><p><b>item</b></p><p><b>linkId</b>: patient.city</p><p><b>text</b>: Ort</p></blockquote><blockquote><p><b>item</b></p><p><b>linkId</b>: patient.country</p><p><b>text</b>: Land</p></blockquote></blockquote><blockquote><p><b>item</b></p><p><b>linkId</b>: sender</p><p><b>text</b>: Absender</p><blockquote><p><b>item</b></p><p><b>linkId</b>: sender.author</p><p><b>text</b>: Verantwortlicher</p></blockquote><blockquote><p><b>item</b></p><p><b>linkId</b>: sender.dataenterer</p><p><b>text</b>: Erfasser</p></blockquote></blockquote><blockquote><p><b>item</b></p><p><b>linkId</b>: receiverCopies</p><p><b>text</b>: Kopieempfänger</p><blockquote><p><b>item</b></p><p><b>linkId</b>: receiverCopy</p><p><b>text</b>: Kopieempfangende Organisation oder Person</p></blockquote><blockquote><p><b>item</b></p><p><b>linkId</b>: receiverCopy</p><p><b>text</b>: Kopieempfangende Organisation oder Person</p></blockquote></blockquote><blockquote><p><b>item</b></p><p><b>linkId</b>: cytology</p><p><b>text</b>: Cytology and Microbiology</p><blockquote><p><b>item</b></p><p><b>linkId</b>: cervicalSmear</p><p><b>text</b>: Cervical Smear</p></blockquote></blockquote><blockquote><p><b>item</b></p><p><b>linkId</b>: urin</p><p><b>text</b>: Urin</p><blockquote><p><b>item</b></p><p><b>linkId</b>: combur9</p><p><b>text</b>: Combur-9</p></blockquote></blockquote><blockquote><p><b>item</b></p><p><b>linkId</b>: obstetricalPanels</p><p><b>text</b>: Schwangerschaftsvorsorge</p><blockquote><p><b>item</b></p><p><b>linkId</b>: obstetric</p><p><b>text</b>: Obstetric 1996 panel – Serum and Blood</p></blockquote></blockquote></div>"},"questionnaire":"http://fhir.ch/ig/ch-lab-order/Questionnaire/3-gyn","status":"completed","item":[{"linkId":"order","text":"Auftrag","item":[{"linkId":"order.placerOrderIdentifier","text":"Auftragsnummer des Auftraggebers","answer":[{"valueString":"123"}]},{"linkId":"order.placerOrderIdentifierDomain","text":"Identifier Domain der Auftragsnummer des Auftraggebers","answer":[{"valueString":"urn:oid:2.16.756.5.30"}]},{"linkId":"order.precedentDocumentIdentifier","text":"Identifier des Vorgängerdokuments","answer":[{"valueString":"1622f2fb-6ba3-4532-9aed-35b158def187"}]},{"linkId":"order.notificationContactDocument","text":"Dringender Benachrichtigungskontakt für dieses Dokument","item":[{"linkId":"order.notificationContactDocument.practitioner","text":"Zu benachrichtigende Person","item":[{"linkId":"order.notificationContactDocument.practitioner.title","text":"Titel","answer":[{"valueString":"Dr. med."}]},{"linkId":"order.notificationContactDocument.practitioner.familyName","text":"Name","answer":[{"valueString":"Erlenmeyer"}]},{"linkId":"order.notificationContactDocument.practitioner.givenName","text":"Vorname","answer":[{"valueString":"Eva"}]},{"linkId":"order.notificationContactDocument.practitioner.phone","text":"Telefon","answer":[{"valueString":"044 333 22 11"}]},{"linkId":"order.notificationContactDocument.practitioner.email","text":"E-Mail","answer":[{"valueString":"eva.erlenmeyer@labor-pipette.ch"}]}]}]},{"linkId":"order.notificationContactDocumentResponse","text":"Dringender Benachrichtigungskontakt für die Antwort auf dieses Dokument","item":[{"linkId":"order.notificationContactDocumentResponse.practitioner","text":"Zu benachrichtigende Person","item":[{"linkId":"order.notificationContactDocumentResponse.practitioner.title","text":"Titel","answer":[{"valueString":"Dr. med."}]},{"linkId":"order.notificationContactDocumentResponse.practitioner.familyName","text":"Name","answer":[{"valueString":"Pap"}]},{"linkId":"order.notificationContactDocumentResponse.practitioner.givenName","text":"Vorname","answer":[{"valueString":"Peter"}]},{"linkId":"order.notificationContactDocumentResponse.practitioner.phone","text":"Telefon","answer":[{"valueString":"032 333 22 40"}]},{"linkId":"order.notificationContactDocumentResponse.practitioner.email","text":"E-Mail","answer":[{"valueString":"peter.pap@gruppenpraxis.ch"}]}]}]},{"linkId":"order.priority","text":"Auftragspriorität","answer":[{"valueCoding":{"system":"http://hl7.org/fhir/request-priority","code":"routine"}}]}]},{"linkId":"receiver","text":"Empfänger","item":[{"linkId":"receiver.practitioner","text":"Empfangende Person","item":[{"linkId":"receiver.practitioner.title","text":"Titel","answer":[{"valueString":"Dr. med."}]},{"linkId":"receiver.practitioner.familyName","text":"Name","answer":[{"valueString":"Erlenmeyer"}]},{"linkId":"receiver.practitioner.givenName","text":"Vorname","answer":[{"valueString":"Eva"}]},{"linkId":"receiver.practitioner.gln","text":"GLN","answer":[{"valueString":"7601000050703"}]},{"linkId":"receiver.practitioner.phone","text":"Telefon","answer":[{"valueString":"+41322552525"}]},{"linkId":"receiver.practitioner.email","text":"E-Mail","answer":[{"valueString":"eva.erlenmeyer@labor-pipette.ch"}]}]},{"linkId":"receiver.organization","text":"Empfangende Organisation","item":[{"linkId":"receiver.organization.name","text":"Name der Organisation","answer":[{"valueString":"Labor Pipette"}]},{"linkId":"receiver.organization.streetAddressLine","text":"Strasse, Hausnummer, Postfach etc.","answer":[{"valueString":"Laborstrasse 23"},{"valueString":"Postfach 44"}]},{"linkId":"receiver.organization.postalCode","text":"PLZ","answer":[{"valueString":"4600"}]},{"linkId":"receiver.organization.city","text":"Ort","answer":[{"valueString":"Olten"}]},{"linkId":"receiver.organization.country","text":"Land","answer":[{"valueString":"Schweiz"}]}]}]},{"linkId":"patient","text":"Patient","item":[{"linkId":"patient.familyName","text":"Name","answer":[{"valueString":"Rubella"}]},{"linkId":"patient.maidenName","text":"Ledigname","answer":[{"valueString":"Berlusconi"}]},{"linkId":"patient.givenName","text":"Vorname","answer":[{"valueString":"Marina"}]},{"linkId":"patient.localPid","text":"Lokale Patienten-ID","answer":[{"valueString":"11.22.33.5678"}]},{"linkId":"patient.birthDate","text":"Geburtsdatum","answer":[{"valueDate":"1981-01-01"}]},{"linkId":"patient.gender","text":"Geschlecht","answer":[{"valueCoding":{"system":"http://hl7.org/fhir/administrative-gender","code":"female"}}]},{"linkId":"patient.maritalStatus","text":"Zivilstand","answer":[{"valueCoding":{"system":"http://fhir.ch/ig/ch-core/CodeSystem/ech-11-maritalstatus","code":"2","display":"verheiratet"}}]},{"linkId":"patient.phone","text":"Telefon","answer":[{"valueString":"079 979 79 79"}]},{"linkId":"patient.email","text":"E-Mail","answer":[{"valueString":"marina.rubella@example.ch"}]},{"linkId":"patient.streetAddressLine","text":"Strasse, Hausnummer, Postfach etc.","answer":[{"valueString":"Musterweg"},{"valueString":"6a"}]},{"linkId":"patient.postalCode","text":"PLZ","answer":[{"valueString":"8000"}]},{"linkId":"patient.city","text":"Ort","answer":[{"valueString":"Zürich"}]},{"linkId":"patient.country","text":"Land","answer":[{"valueString":"Schweiz"}]}]},{"linkId":"sender","text":"Absender","item":[{"linkId":"sender.author","text":"Verantwortlicher","item":[{"linkId":"sender.author.practitioner","text":"Verantwortliche Person","item":[{"linkId":"sender.author.practitioner.title","text":"Titel","answer":[{"valueString":"Dr. med."}]},{"linkId":"sender.author.practitioner.familyName","text":"Name","answer":[{"valueString":"Pap"}]},{"linkId":"sender.author.practitioner.givenName","text":"Vorname","answer":[{"valueString":"Peter"}]},{"linkId":"sender.author.practitioner.gln","text":"GLN","answer":[{"valueString":"7601000034321"}]},{"linkId":"sender.author.practitioner.phone","text":"Telefon","answer":[{"valueString":"032 333 22 40"}]},{"linkId":"sender.author.practitioner.email","text":"E-Mail","answer":[{"valueString":"peter.pap@gruppenpraxis.ch"}]}]},{"linkId":"sender.author.organization","text":"Verantwortliche Organisation","item":[{"linkId":"sender.author.organization.name","text":"Name der Organisation","answer":[{"valueString":"Gruppenpraxis Olten"}]},{"linkId":"sender.author.organization.streetAddressLine","text":"Strasse, Hausnummer, Postfach etc.","answer":[{"valueString":"Gerbergasse 12"},{"valueString":"Postfach 55"}]},{"linkId":"sender.author.organization.postalCode","text":"PLZ","answer":[{"valueString":"4600"}]},{"linkId":"sender.author.organization.city","text":"Ort","answer":[{"valueString":"Olten"}]},{"linkId":"sender.author.organization.country","text":"Land","answer":[{"valueString":"Schweiz"}]}]}]},{"linkId":"sender.dataenterer","text":"Erfasser","item":[{"linkId":"sender.dataenterer.practitioner","text":"Erfassende Person","item":[{"linkId":"sender.dataenterer.practitioner.familyName","text":"Name","answer":[{"valueString":"Federer"}]},{"linkId":"sender.dataenterer.practitioner.givenName","text":"Vorname","answer":[{"valueString":"Alice"}]},{"linkId":"sender.dataenterer.practitioner.phone","text":"Telefon","answer":[{"valueString":"044 222 22 12"}]},{"linkId":"sender.dataenterer.practitioner.email","text":"E-Mail","answer":[{"valueString":"alice.federer@praxisseeblick.ch"}]}]}]}]},{"linkId":"receiverCopies","text":"Kopieempfänger","item":[{"linkId":"receiverCopy","text":"Kopieempfangende Organisation oder Person","item":[{"linkId":"receiverCopy.organization.name","text":"Name der Organisation","answer":[{"valueString":"Praxis Seeblick"}]},{"linkId":"receiverCopy.title","text":"Titel","answer":[{"valueString":"Dr. med."}]},{"linkId":"receiverCopy.familyName","text":"Name","answer":[{"valueString":"Meier"}]},{"linkId":"receiverCopy.givenName","text":"Vorname","answer":[{"valueString":"Sabine"}]},{"linkId":"receiverCopy.phone","text":"Telefon","answer":[{"valueString":"044 333 22 11"}]},{"linkId":"receiverCopy.email","text":"E-Mail","answer":[{"valueString":"sabine.meier@praxisseeblick.ch"}]}]},{"linkId":"receiverCopy","text":"Kopieempfangende Organisation oder Person","item":[{"linkId":"receiverCopy.familyName","text":"Name","answer":[{"valueString":"Rubella"}]},{"linkId":"receiverCopy.givenName","text":"Vorname","answer":[{"valueString":"Marina"}]},{"linkId":"receiverCopy.phone","text":"Telefon","answer":[{"valueString":"+41 64 123 45 67"}]},{"linkId":"receiverCopy.email","text":"E-Mail","answer":[{"valueString":"marina.rubella@example.ch"}]},{"linkId":"receiverCopy.streetAddressLine","text":"Strasse, Hausnummer, Postfach etc.","answer":[{"valueString":"Via del bosco"},{"valueString":"88"}]},{"linkId":"receiverCopy.postalCode","text":"PLZ","answer":[{"valueString":"6780"}]},{"linkId":"receiverCopy.city","text":"Ort","answer":[{"valueString":"Airolo"}]},{"linkId":"receiverCopy.country","text":"Land","answer":[{"valueString":"Schweiz"}]}]}]},{"linkId":"cytology","text":"Cytology and Microbiology","item":[{"linkId":"cervicalSmear","text":"Cervical Smear","answer":[{"valueCoding":{"system":"http://loinc.org","code":"86662-4","display":"Pap smear tests - FPAR 2.0 set"}},{"valueCoding":{"system":"http://loinc.org","code":"14503-7","display":"Human papilloma virus 16+18 Ag [Presence] in Cervix"}}]}]},{"linkId":"urin","text":"Urin","item":[{"linkId":"combur9","text":"Combur-9","answer":[{"valueCoding":{"system":"http://loinc.org","code":"50556-0","display":"Urinalysis dipstick panel - Urine by Automated test strip"}}]}]},{"linkId":"obstetricalPanels","text":"Schwangerschaftsvorsorge","item":[{"linkId":"obstetric","text":"Obstetric 1996 panel – Serum and Blood","answer":[{"valueCoding":{"system":"http://loinc.org","code":"24364-2","display":"Obstetric 1996 Pnl Ser+Bld"}}]}]}]}},{"fullUrl":"http://example.com/fhir/ServiceRequest/3-gyn","resource":{"resourceType":"ServiceRequest","id":"3-gyn","meta":{"profile":["http://fhir.ch/ig/ch-orf/StructureDefinition/ch-orf-servicerequest"]},"text":{"status":"generated","div":"<div xmlns=\"http://www.w3.org/1999/xhtml\"><p><b>Generated Narrative</b></p><div style=\"display: inline-block; background-color: #d9e0e7; padding: 6px; margin: 4px; border: 1px solid #8da1b4; border-radius: 5px; line-height: 60%\"><p style=\"margin-bottom: 0px\">Resource \"3-gyn\" </p><p style=\"margin-bottom: 0px\">Profile: <a href=\"http://fhir.ch/ig/ch-orf/StructureDefinition-ch-orf-servicerequest.html\">CH ORF ServiceRequest</a></p></div><p><b>identifier</b>: Placer Identifier: 123</p><p><b>status</b>: active</p><p><b>intent</b>: original-order</p><p><b>category</b>: Anforderung Laboruntersuchung <span style=\"background: LightGoldenRodYellow; margin: 4px; border: 1px solid khaki\"> (ch-lab-order-servicerequest-categories#RequestForLabExam)</span></p><p><b>priority</b>: routine</p><p><b>code</b>: Pap smear tests - FPAR 2.0 set <span style=\"background: LightGoldenRodYellow; margin: 4px; border: 1px solid khaki\"> (<a href=\"https://loinc.org/\">LOINC</a>#86662-4; <a href=\"https://loinc.org/\">LOINC</a>#14503-7 \"Human papilloma virus 16+18 Ag [Presence] in Cervix\"; <a href=\"https://loinc.org/\">LOINC</a>#50556-0 \"Urinalysis dipstick panel - Urine by Automated test strip\"; <a href=\"https://loinc.org/\">LOINC</a>#24364-2 \"Obstetric 1996 Pnl Ser+Bld\")</span></p><p><b>subject</b>: <a href=\"#Patient_MarinaRubella\">See above (Patient/MarinaRubella)</a></p><p><b>requester</b>: <a href=\"#PractitionerRole_PeterPapGruppenpraxis\">See above (PractitionerRole/PeterPapGruppenpraxis)</a></p><p><b>reasonCode</b>: Routine gynecologic examination (procedure) <span style=\"background: LightGoldenRodYellow; margin: 4px; border: 1px solid khaki\"> (<a href=\"https://browser.ihtsdotools.org/\">SNOMED CT</a>#702601001)</span></p><p><b>insurance</b>: <a href=\"Coverage-HealthInsuranceCard.html\">Coverage/HealthInsuranceCard</a></p><p><b>specimen</b>: </p><ul><li><a href=\"Specimen-Cervix-swab.html\">Specimen/Cervix-swab</a></li><li><a href=\"Specimen-Blood.html\">Specimen/Blood</a></li><li><a href=\"Specimen-Serum.html\">Specimen/Serum</a></li><li><a href=\"Specimen-Urin.html\">Specimen/Urin</a></li></ul></div>"},"identifier":[{"type":{"coding":[{"system":"http://terminology.hl7.org/CodeSystem/v2-0203","code":"PLAC","display":"Placer Identifier"}]},"system":"urn:oid:2.16.756.5.30","value":"123"}],"status":"active","intent":"original-order","category":[{"coding":[{"system":"http://fhir.ch/ig/ch-lab-order/CodeSystem/ch-lab-order-servicerequest-categories","code":"RequestForLabExam","display":"Anforderung Laboruntersuchung"}]}],"priority":"routine","code":{"coding":[{"system":"http://loinc.org","code":"86662-4","display":"Pap smear tests - FPAR 2.0 set"},{"system":"http://loinc.org","code":"14503-7","display":"Human papilloma virus 16+18 Ag [Presence] in Cervix"},{"system":"http://loinc.org","code":"50556-0","display":"Urinalysis dipstick panel - Urine by Automated test strip"},{"system":"http://loinc.org","code":"24364-2","display":"Obstetric 1996 Pnl Ser+Bld"}]},"subject":{"reference":"Patient/MarinaRubella"},"requester":{"reference":"PractitionerRole/PeterPapGruppenpraxis"},"reasonCode":[{"coding":[{"system":"http://snomed.info/sct","code":"702601001"}],"text":"Routine gynecologic examination (procedure)"}],"insurance":[{"reference":"Coverage/HealthInsuranceCard"}],"specimen":[{"reference":"Specimen/Cervix-swab"},{"reference":"Specimen/Blood"},{"reference":"Specimen/Serum"},{"reference":"Specimen/Urin"}]}}]}