{"resourceType":"Bundle","id":"5-biol-monit","meta":{"versionId":"1","lastUpdated":"2019-04-01T20:18:41.341+00:00","profile":["http://fhir.ch/ig/ch-orf/StructureDefinition/ch-orf-document"]},"identifier":{"system":"urn:ietf:rfc:3986","value":"urn:uuid:26d3dff7-ab05-4737-a49c-5eccd3359505"},"type":"document","timestamp":"2019-04-01T20:18:41.341+00:00","entry":[{"fullUrl":"http://example.com/fhir/Composition/5-biol-monit","resource":{"resourceType":"Composition","id":"5-biol-monit","meta":{"versionId":"1","lastUpdated":"2021-02-18T17:04:38.520+00:00","profile":["http://fhir.ch/ig/ch-orf/StructureDefinition/ch-orf-composition"]},"text":{"status":"additional","div":"<div xmlns=\"http://www.w3.org/1999/xhtml\"><div>Laboratory Order</div></div>"},"extension":[{"extension":[{"url":"enterer","valueReference":{"reference":"PractitionerRole/PauloPorcelliniSuva"}}],"url":"http://fhir.ch/ig/ch-core/StructureDefinition/ch-ext-epr-dataenterer"},{"url":"http://fhir.ch/ig/ch-orf/StructureDefinition/ch-orf-receiver","valueReference":{"reference":"PractitionerRole/EvaErlenmeyerLaborPipette"}},{"url":"http://fhir.ch/ig/ch-orf/StructureDefinition/ch-orf-copyreceiver","valueReference":{"reference":"PractitionerRole/MarcMustermannArztpraxis"}},{"url":"http://fhir.ch/ig/ch-orf/StructureDefinition/ch-orf-copyreceiver","valueReference":{"reference":"PractitionerRole/WoodyWorkdocSpeiserRails"}}],"status":"final","type":{"coding":[{"system":"http://snomed.info/sct","code":"721965002","display":"Laboratory order (record artifact)"}]},"category":[{"coding":[{"system":"http://snomed.info/sct","code":"721963009","display":"Order (record artifact)"}]}],"subject":{"reference":"Patient/BeatBorer"},"date":"2019-03-31T11:46:09+02:00","author":[{"reference":"PractitionerRole/PauloPorcelliniSuva"}],"title":"Referral 5-biol-monit","section":[{"title":"Order-Referral-Form 5-biol-monit","code":{"coding":[{"system":"http://loinc.org","code":"93037-0","display":"Portable medical order form"}]},"text":{"status":"generated","div":"<div xmlns=\"http://www.w3.org/1999/xhtml\">Order-Referral-Form 5-biol-monit</div>"},"entry":[{"reference":"Questionnaire/5-biol-monit"},{"reference":"QuestionnaireResponse/5-biol-monit"},{"reference":"ServiceRequest/5-biol-monit"}]}]}},{"fullUrl":"http://example.com/fhir/Patient/BeatBorer","resource":{"resourceType":"Patient","id":"BeatBorer","meta":{"profile":["http://fhir.ch/ig/ch-core/StructureDefinition/ch-core-patient"]},"text":{"status":"additional","div":"<div xmlns=\"http://www.w3.org/1999/xhtml\"><p><b>id</b>: BeatBorer</p><p><b>meta</b>:</p><p><b>identifier</b>: 012/08.111115</p><p><b>name</b>: Beat Borer</p><p><b>gender</b>: MALE</p><p><b>birthDate</b>: Jun 06, 1986</p><p><b>maritalStatus</b>: verheiratet <span style=\"background: LightGoldenRodYellow\">(Details : {http://fhir.ch/ig/ch-core/CodeSystem/ech-11-maritalstatus code '6' = '6', given as 'in eingetragener Partnerschaft'})</span></p><h3>Communications</h3><table class=\"grid\"><tr><td>-</td><td><b>Language</b></td><td><b>Preferred</b></td></tr><tr><td>*</td><td>Deutsch (Schweiz) <span style=\"background: LightGoldenRodYellow\">(Details : {urn:oid:2.16.840.1.113883.6.316 code 'de-CH' = 'German (Region=Schweiz))</span></td><td>true</td></tr></table></div>"},"extension":[{"url":"http://hl7.org/fhir/StructureDefinition/patient-birthPlace","valueAddress":{"city":"Lausanne","country":"Schweiz"}},{"url":"http://fhir.ch/ig/ch-core/StructureDefinition/ch-core-patient-ech-11-placeoforigin","valueAddress":{"city":"Köniz","state":"BE"}},{"url":"http://hl7.org/fhir/StructureDefinition/patient-religion","valueCodeableConcept":{"coding":[{"system":"http://terminology.hl7.org/CodeSystem/v3-ReligiousAffiliation","code":"1077","display":"Protestant"}]}}],"identifier":[{"type":{"coding":[{"system":"http://terminology.hl7.org/CodeSystem/v2-0203","code":"MR"}]},"system":"urn:oid:2.16.756.5.30.999999.1","value":"012/08.111115"}],"name":[{"family":"Borer","given":["Beat"]}],"telecom":[{"system":"phone","value":"+41 36 123 45 67","use":"home"},{"system":"email","value":"beat.borer@example.ch"}],"gender":"male","birthDate":"1986-06-06","maritalStatus":{"coding":[{"system":"http://fhir.ch/ig/ch-core/CodeSystem/ech-11-maritalstatus","code":"2","display":"verheiratet"}]},"communication":[{"language":{"coding":[{"system":"urn:oid:2.16.840.1.113883.6.316","code":"de-CH"}],"text":"Deutsch (Schweiz)"},"preferred":true}]}},{"fullUrl":"http://example.com/fhir/Practitioner/PauloPorcellini","resource":{"resourceType":"Practitioner","id":"PauloPorcellini","meta":{"profile":["http://fhir.ch/ig/ch-core/StructureDefinition/ch-core-practitioner-epr"]},"text":{"status":"generated","div":"<div xmlns=\"http://www.w3.org/1999/xhtml\"><p><b>Generated Narrative</b></p><div style=\"display: inline-block; background-color: #d9e0e7; padding: 6px; margin: 4px; border: 1px solid #8da1b4; border-radius: 5px; line-height: 60%\"><p style=\"margin-bottom: 0px\">Resource \"PauloPorcellini\" </p><p style=\"margin-bottom: 0px\">Profile: <a href=\"http://fhir.ch/ig/ch-core/StructureDefinition-ch-core-practitioner-epr.html\">CH Core Practitioner Profile EPR</a></p></div><p><b>identifier</b>: id: 7601000050705, id: A123307</p><p><b>name</b>: Paulo Porcellini (OFFICIAL)</p><p><b>telecom</b>: ph: 036 336 22 33(WORK), <a href=\"mailto:paulo.porcellini@suva.ch\">paulo.porcellini@suva.ch</a></p></div>"},"identifier":[{"system":"urn:oid:2.51.1.3","value":"7601000050705"},{"system":"urn:oid:2.16.756.5.30.1.123.100.2.1.1","value":"A123307"}],"name":[{"use":"official","family":"Porcellini","given":["Paulo"],"prefix":["Dr. med."],"_prefix":[{"extension":[{"url":"http://hl7.org/fhir/StructureDefinition/iso21090-EN-qualifier","valueCode":"AC"}]}]}],"telecom":[{"system":"phone","value":"036 336 22 33","use":"work"},{"system":"email","value":"paulo.porcellini@suva.ch","use":"work"}]}},{"fullUrl":"http://example.com/fhir/Organization/Suva","resource":{"resourceType":"Organization","id":"Suva","meta":{"profile":["http://fhir.ch/ig/ch-core/StructureDefinition/ch-core-organization"]},"text":{"status":"generated","div":"<div xmlns=\"http://www.w3.org/1999/xhtml\"><p><b>Generated Narrative</b></p><div style=\"display: inline-block; background-color: #d9e0e7; padding: 6px; margin: 4px; border: 1px solid #8da1b4; border-radius: 5px; line-height: 60%\"><p style=\"margin-bottom: 0px\">Resource \"Suva\" </p><p style=\"margin-bottom: 0px\">Profile: <a href=\"http://fhir.ch/ig/ch-core/StructureDefinition-ch-core-organization.html\">CH Core Organization Profile</a></p></div><p><b>identifier</b>: id: CHE-108.955.179</p><p><b>name</b>: Suva</p><p><b>telecom</b>: <a href=\"tel:+41322345566\">+41322345566</a>, <a href=\"mailto:info@suva.ch\">info@suva.ch</a>, <a href=\"http://www.suva.ch\">http://www.suva.ch</a></p><p><b>address</b>: Löwenplatz 1 Luzern 6004 CH </p></div>"},"identifier":[{"system":"urn:oid:2.16.756.5.45","value":"CHE-108.955.179"}],"name":"Suva","telecom":[{"system":"phone","value":"+41322345566","use":"work"},{"system":"email","value":"info@suva.ch","use":"work"},{"system":"url","value":"http://www.suva.ch","use":"work"}],"address":[{"line":["Löwenplatz 1"],"city":"Luzern","postalCode":"6004","country":"CH"}]}},{"fullUrl":"http://example.com/fhir/PractitionerRole/PauloPorcelliniSuva","resource":{"resourceType":"PractitionerRole","id":"PauloPorcelliniSuva","meta":{"profile":["http://fhir.ch/ig/ch-core/StructureDefinition/ch-core-practitionerrole"]},"text":{"status":"generated","div":"<div xmlns=\"http://www.w3.org/1999/xhtml\"><p><b>Generated Narrative</b></p><div style=\"display: inline-block; background-color: #d9e0e7; padding: 6px; margin: 4px; border: 1px solid #8da1b4; border-radius: 5px; line-height: 60%\"><p style=\"margin-bottom: 0px\">Resource \"PauloPorcelliniSuva\" </p><p style=\"margin-bottom: 0px\">Profile: <a href=\"http://fhir.ch/ig/ch-core/StructureDefinition-ch-core-practitionerrole.html\">CH Core Practitioner Role Profile</a></p></div><p><b>practitioner</b>: <a href=\"#Practitioner_PauloPorcellini\">See above (Practitioner/PauloPorcellini)</a></p><p><b>organization</b>: <a href=\"#Organization_Suva\">See above (Organization/Suva)</a></p></div>"},"practitioner":{"reference":"Practitioner/PauloPorcellini"},"organization":{"reference":"Organization/Suva"}}},{"fullUrl":"http://example.com/fhir/Questionnaire/5-biol-monit","resource":{"resourceType":"Questionnaire","id":"5-biol-monit","meta":{"versionId":"1","lastUpdated":"2019-04-01T20:17:53.340+00:00","profile":["http://fhir.ch/ig/ch-orf/StructureDefinition/ch-orf-questionnaire","http://hl7.org/fhir/uv/sdc/StructureDefinition/sdc-questionnaire","http://hl7.org/fhir/uv/sdc/StructureDefinition/sdc-questionnaire-extract"]},"text":{"status":"extensions","div":"<div xmlns=\"http://www.w3.org/1999/xhtml\"><p><b>Generated Narrative</b></p><div style=\"display: inline-block; background-color: #d9e0e7; padding: 6px; margin: 4px; border: 1px solid #8da1b4; border-radius: 5px; line-height: 60%\"><p style=\"margin-bottom: 0px\">Resource \"5-biol-monit\" Version \"1\" Updated \"2019-04-01T22:17:53.34+02:00\" </p><p style=\"margin-bottom: 0px\">Profiles: <a href=\"http://fhir.ch/ig/ch-orf/StructureDefinition-ch-orf-questionnaire.html\">CH ORF Questionnaire</a>, <a href=\"http://hl7.org/fhir/uv/sdc/2019May/sdc-questionnaire.html\">Questionnaire</a>, <a href=\"http://hl7.org/fhir/uv/sdc/2019May/sdc-questionnaire-extract.html\">Extractable Questionnaire</a></p></div><p><b>Target structure map</b>: <a href=\"http://fhir.ch/ig/ch-orf/StructureMap-OrfQrToBundle.html\">OrfQrToBundle</a></p><p><b>Source structure map</b>: <a href=\"http://fhir.ch/ig/ch-orf/StructureMap/OrfPrepopBundleToQr\">http://fhir.ch/ig/ch-orf/StructureMap/OrfPrepopBundleToQr</a></p><blockquote><p><b>Launch context resources</b></p><p><b>value</b>: Bundle</p><p><b>value</b>: Bundle</p><p><b>value</b>: The Bundle that is to be used to pre-populate the form</p></blockquote><p><b>url</b>: <code>http://fhir.ch/ig/ch-lab-order/Questionnaire/5-biol-monit</code></p><p><b>version</b>: 0.9.1</p><p><b>name</b>: LabOrderFormExample</p><p><b>title</b>: Lab Order Form Example</p><p><b>status</b>: active</p><p><b>subjectType</b>: Patient</p><p><b>date</b>: 2020-12-17</p><p><b>publisher</b>: HL7 Switzerland</p><p><b>contact</b>: HL7 Switzerland: <a href=\"https://www.hl7.ch/\">https://www.hl7.ch/</a></p><p><b>jurisdiction</b>: Switzerland <span style=\"background: LightGoldenRodYellow; margin: 4px; border: 1px solid khaki\"> (unknown#CH)</span></p><p><b>copyright</b>: CC-BY-SA-4.0</p><blockquote><p><b>item</b></p><p><b>linkId</b>: order</p><p><b>text</b>: Auftrag</p><p><b>type</b>: group</p><p><b>required</b>: true</p><blockquote><p><b>item</b></p><p><b>linkId</b>: order.placerOrderIdentifier</p><p><b>text</b>: Auftragsnummer des Auftraggebers</p><p><b>type</b>: string</p></blockquote><blockquote><p><b>item</b></p><p><b>hidden</b>: true</p><p><b>linkId</b>: order.placerOrderIdentifierDomain</p><p><b>text</b>: Identifier Domain der Auftragsnummer des Auftraggebers</p><p><b>type</b>: string</p></blockquote><blockquote><p><b>item</b></p><p><b>linkId</b>: order.fillerOrderIdentifier</p><p><b>text</b>: Auftragsnummer des Auftragsempfängers</p><p><b>type</b>: string</p></blockquote><blockquote><p><b>item</b></p><p><b>hidden</b>: true</p><p><b>linkId</b>: order.fillerOrderIdentifierDomain</p><p><b>text</b>: Identifier Domain der Auftragsnummer des Auftragsempfängers</p><p><b>type</b>: string</p></blockquote><blockquote><p><b>item</b></p><p><b>hidden</b>: true</p><p><b>linkId</b>: order.precedentDocumentIdentifier</p><p><b>text</b>: Identifier des Vorgängerdokuments</p><p><b>type</b>: string</p></blockquote><blockquote><p><b>item</b></p><p><b>linkId</b>: order.notificationContactDocument</p><p><b>text</b>: Dringender Benachrichtigungskontakt für dieses Dokument</p><p><b>type</b>: group</p></blockquote><blockquote><p><b>item</b></p><p><b>linkId</b>: order.notificationContactDocumentResponse</p><p><b>text</b>: Dringender Benachrichtigungskontakt für die Antwort auf dieses Dokument</p><p><b>type</b>: group</p></blockquote><blockquote><p><b>item</b></p><p><b>linkId</b>: order.priority</p><p><b>text</b>: Auftragspriorität</p><p><b>type</b>: choice</p></blockquote></blockquote><blockquote><p><b>item</b></p><p><b>linkId</b>: receiver</p><p><b>text</b>: Empfänger</p><p><b>type</b>: group</p><blockquote><p><b>item</b></p><p><b>linkId</b>: receiver.practitioner</p><p><b>text</b>: Empfangende Person</p><p><b>type</b>: group</p></blockquote><blockquote><p><b>item</b></p><p><b>linkId</b>: receiver.organization</p><p><b>text</b>: Empfangende Organisation</p><p><b>type</b>: group</p></blockquote></blockquote><blockquote><p><b>item</b></p><p><b>linkId</b>: patient</p><p><b>text</b>: Patient</p><p><b>type</b>: group</p><p><b>required</b>: true</p><blockquote><p><b>item</b></p><p><b>linkId</b>: patient.familyName</p><p><b>text</b>: Name</p><p><b>type</b>: string</p></blockquote><blockquote><p><b>item</b></p><p><b>linkId</b>: patient.maidenName</p><p><b>text</b>: Ledigname</p><p><b>type</b>: string</p></blockquote><blockquote><p><b>item</b></p><p><b>linkId</b>: patient.givenName</p><p><b>text</b>: Vorname</p><p><b>type</b>: string</p></blockquote><blockquote><p><b>item</b></p><p><b>linkId</b>: patient.localPid</p><p><b>text</b>: Lokale Patienten-ID</p><p><b>type</b>: string</p></blockquote><blockquote><p><b>item</b></p><p><b>linkId</b>: patient.birthDate</p><p><b>text</b>: Geburtsdatum</p><p><b>type</b>: date</p></blockquote><blockquote><p><b>item</b></p><p><b>linkId</b>: patient.gender</p><p><b>text</b>: Geschlecht</p><p><b>type</b>: choice</p></blockquote><blockquote><p><b>item</b></p><p><b>linkId</b>: patient.maritalStatus</p><p><b>definition</b>: <a href=\"http://fhir.ch/ig/ch-core/StructureDefinition-ch-core-patient.html\">CH Core Patient Profile</a></p><p><b>text</b>: Zivilstand</p><p><b>type</b>: choice</p></blockquote><blockquote><p><b>item</b></p><p><b>linkId</b>: patient.phone</p><p><b>text</b>: Telefon</p><p><b>type</b>: string</p></blockquote><blockquote><p><b>item</b></p><p><b>linkId</b>: patient.email</p><p><b>text</b>: E-Mail</p><p><b>type</b>: string</p></blockquote><blockquote><p><b>item</b></p><p><b>linkId</b>: patient.streetAddressLine</p><p><b>text</b>: Strasse, Hausnummer, Postfach etc.</p><p><b>type</b>: string</p><p><b>repeats</b>: true</p></blockquote><blockquote><p><b>item</b></p><p><b>linkId</b>: patient.postalCode</p><p><b>text</b>: PLZ</p><p><b>type</b>: string</p></blockquote><blockquote><p><b>item</b></p><p><b>linkId</b>: patient.city</p><p><b>text</b>: Ort</p><p><b>type</b>: string</p></blockquote><blockquote><p><b>item</b></p><p><b>linkId</b>: patient.country</p><p><b>text</b>: Land</p><p><b>type</b>: string</p></blockquote><blockquote><p><b>item</b></p><p><b>linkId</b>: patient.languageOfCorrespondance</p><p><b>definition</b>: <a href=\"http://fhir.ch/ig/ch-core/StructureDefinition-ch-core-patient.html\">CH Core Patient Profile</a></p><p><b>text</b>: Korrespondenssprache</p><p><b>type</b>: choice</p><p><b>answerValueSet</b>: <a href=\"http://fhir.ch/ig/ch-epr-term/ValueSet-DocumentEntry.languageCode.html\">DocumentEntry.languageCode</a></p></blockquote><blockquote><p><b>item</b></p><p><b>linkId</b>: patient.contactperson</p><p><b>definition</b>: <a href=\"http://fhir.ch/ig/ch-core/StructureDefinition-ch-core-patient.html\">CH Core Patient Profile</a></p><p><b>text</b>: Kontaktperson</p><p><b>type</b>: group</p></blockquote></blockquote><blockquote><p><b>item</b></p><p><b>linkId</b>: sender</p><p><b>text</b>: Absender</p><p><b>type</b>: group</p><p><b>required</b>: true</p><blockquote><p><b>item</b></p><p><b>linkId</b>: sender.author</p><p><b>text</b>: Verantwortlicher</p><p><b>type</b>: group</p><p><b>required</b>: true</p></blockquote><blockquote><p><b>item</b></p><p><b>linkId</b>: sender.dataenterer</p><p><b>text</b>: Erfasser</p><p><b>type</b>: group</p></blockquote></blockquote><blockquote><p><b>item</b></p><p><b>linkId</b>: receiverCopies</p><p><b>text</b>: Kopieempfänger</p><p><b>type</b>: group</p><blockquote><p><b>item</b></p><p><b>linkId</b>: receiverCopy</p><p><b>definition</b>: <a href=\"http://fhir.ch/ig/ch-core/StructureDefinition-ch-core-practitionerrole.html\">CH Core Practitioner Role Profile</a></p><p><b>text</b>: Kopieempfangende Organisation oder Person</p><p><b>type</b>: group</p><p><b>repeats</b>: true</p></blockquote><blockquote><p><b>item</b></p><p><b>linkId</b>: receiverCopy.patient</p><p><b>definition</b>: <a href=\"http://fhir.ch/ig/ch-core/StructureDefinition-ch-core-patient.html\">CH Core Patient Profile</a></p><p><b>text</b>: Patient selbst</p><p><b>type</b>: boolean</p></blockquote><blockquote><p><b>item</b></p><p><b>linkId</b>: receiverCopy.relatedPerson</p><p><b>definition</b>: <a href=\"http://hl7.org/fhir/R4/relatedperson.html\">RelatedPerson</a></p><p><b>text</b>: Andere Person</p><p><b>type</b>: group</p><p><b>repeats</b>: true</p></blockquote></blockquote><blockquote><p><b>item</b></p><p><b>linkId</b>: consent</p><p><b>definition</b>: <a href=\"StructureDefinition-ch-lab-order-servicerequest.html\">CH LAB-Order ServiceRequest</a></p><p><b>text</b>: Einverständniserklärung</p><p><b>type</b>: group</p><h3>Items</h3><table class=\"grid\"><tr><td>-</td><td><b>LinkId</b></td><td><b>Text</b></td><td><b>Type</b></td></tr><tr><td>*</td><td>consent.treatment</td><td>Einverständnis des Patienten zur Behandlung</td><td>string</td></tr><tr><td>*</td><td>consent.patientPrivacy</td><td>Einverständnis des Patienten zum Datenschutz</td><td>string</td></tr><tr><td>*</td><td>consent.research</td><td>Einverständnis des Patienten zur Forschung</td><td>string</td></tr><tr><td>*</td><td>consent.advancedCareDirective</td><td>Patientenverfügung</td><td>string</td></tr></table></blockquote><blockquote><p><b>item</b></p><p><b>linkId</b>: coverage</p><p><b>definition</b>: <a href=\"StructureDefinition-ch-lab-order-servicerequest.html\">CH LAB-Order ServiceRequest</a></p><p><b>text</b>: Kostenträger</p><p><b>type</b>: group</p><h3>Items</h3><table class=\"grid\"><tr><td>-</td><td><b>LinkId</b></td><td><b>Text</b></td><td><b>Type</b></td></tr><tr><td>*</td><td>coverage.uvg</td><td>Unfallversicherung (nach UVG)</td><td>string</td></tr><tr><td>*</td><td>coverage.kvg</td><td>Grundversicherung (nach KVG)</td><td>string</td></tr><tr><td>*</td><td>coverage.vvg</td><td>Zusatzversicherung (nach VVG)</td><td>string</td></tr><tr><td>*</td><td>coverage.vvgOther</td><td>Andere (nach VVG)</td><td>string</td></tr></table></blockquote><blockquote><p><b>item</b></p><p><b>linkId</b>: previousResult</p><p><b>definition</b>: <a href=\"StructureDefinition-ch-lab-order-servicerequest.html\">CH LAB-Order ServiceRequest</a></p><p><b>text</b>: Vorheriges Untersuchungsresultat</p><p><b>type</b>: group</p><h3>Items</h3><table class=\"grid\"><tr><td>-</td><td><b>LinkId</b></td><td><b>Text</b></td><td><b>Type</b></td><td><b>Repeats</b></td></tr><tr><td>*</td><td>previousResult.result</td><td>Untersuchungsresultat</td><td>string</td><td>true</td></tr></table></blockquote><blockquote><p><b>item</b></p><p><b>linkId</b>: hematology</p><p><b>text</b>: Hematology</p><p><b>type</b>: group</p><blockquote><p><b>item</b></p><p><b>linkId</b>: lab</p><p><b>text</b>: Laborwerte</p><p><b>type</b>: choice</p><p><b>repeats</b>: true</p></blockquote></blockquote><blockquote><p><b>item</b></p><p><b>linkId</b>: toxicology</p><p><b>text</b>: Toxicology</p><p><b>type</b>: group</p><blockquote><p><b>item</b></p><p><b>linkId</b>: tox</p><p><b>text</b>: Toxic Content</p><p><b>type</b>: choice</p><p><b>repeats</b>: true</p></blockquote></blockquote></div>"},"extension":[{"url":"http://hl7.org/fhir/uv/sdc/StructureDefinition/sdc-questionnaire-targetStructureMap","valueCanonical":"http://fhir.ch/ig/ch-orf/StructureMap/OrfQrToBundle"},{"url":"http://hl7.org/fhir/uv/sdc/StructureDefinition/sdc-questionnaire-sourceStructureMap","valueCanonical":"http://fhir.ch/ig/ch-orf/StructureMap/OrfPrepopBundleToQr"},{"extension":[{"url":"name","valueId":"Bundle"},{"url":"type","valueCode":"Bundle"},{"url":"description","valueString":"The Bundle that is to be used to pre-populate the form"}],"url":"http://hl7.org/fhir/uv/sdc/StructureDefinition/sdc-questionnaire-launchContext"}],"url":"http://fhir.ch/ig/ch-lab-order/Questionnaire/5-biol-monit","version":"0.9.1","name":"LabOrderFormExample","title":"Lab Order Form Example","status":"active","subjectType":["Patient"],"date":"2020-12-17","publisher":"HL7 Switzerland","contact":[{"name":"HL7 Switzerland","telecom":[{"system":"url","value":"https://www.hl7.ch/"}]}],"jurisdiction":[{"coding":[{"system":"urn:iso:std:iso:3166","code":"CH"}]}],"copyright":"CC-BY-SA-4.0","item":[{"linkId":"order","text":"Auftrag","type":"group","required":true,"item":[{"linkId":"order.placerOrderIdentifier","text":"Auftragsnummer des Auftraggebers","type":"string"},{"extension":[{"url":"http://hl7.org/fhir/StructureDefinition/questionnaire-hidden","valueBoolean":true}],"linkId":"order.placerOrderIdentifierDomain","text":"Identifier Domain der Auftragsnummer des Auftraggebers","type":"string"},{"linkId":"order.fillerOrderIdentifier","text":"Auftragsnummer des Auftragsempfängers","type":"string"},{"extension":[{"url":"http://hl7.org/fhir/StructureDefinition/questionnaire-hidden","valueBoolean":true}],"linkId":"order.fillerOrderIdentifierDomain","text":"Identifier Domain der Auftragsnummer des Auftragsempfängers","type":"string"},{"extension":[{"url":"http://hl7.org/fhir/StructureDefinition/questionnaire-hidden","valueBoolean":true}],"linkId":"order.precedentDocumentIdentifier","text":"Identifier des Vorgängerdokuments","type":"string"},{"linkId":"order.notificationContactDocument","text":"Dringender Benachrichtigungskontakt für dieses Dokument","type":"group","item":[{"linkId":"order.notificationContactDocument.practitioner","text":"Zu benachrichtigende Person","type":"group","item":[{"linkId":"order.notificationContactDocument.practitioner.title","text":"Titel","type":"string"},{"linkId":"order.notificationContactDocument.practitioner.familyName","text":"Name","type":"string"},{"linkId":"order.notificationContactDocument.practitioner.givenName","text":"Vorname","type":"string"},{"linkId":"order.notificationContactDocument.practitioner.phone","text":"Telefon","type":"string"},{"linkId":"order.notificationContactDocument.practitioner.email","text":"E-Mail","type":"string"}]}]},{"linkId":"order.notificationContactDocumentResponse","text":"Dringender Benachrichtigungskontakt für die Antwort auf dieses Dokument","type":"group","item":[{"linkId":"order.notificationContactDocumentResponse.practitioner","text":"Zu benachrichtigende Person","type":"group","item":[{"linkId":"order.notificationContactDocumentResponse.practitioner.title","text":"Titel","type":"string"},{"linkId":"order.notificationContactDocumentResponse.practitioner.familyName","text":"Name","type":"string"},{"linkId":"order.notificationContactDocumentResponse.practitioner.givenName","text":"Vorname","type":"string"},{"linkId":"order.notificationContactDocumentResponse.practitioner.phone","text":"Telefon","type":"string"},{"linkId":"order.notificationContactDocumentResponse.practitioner.email","text":"E-Mail","type":"string"}]}]},{"linkId":"order.priority","text":"Auftragspriorität","type":"choice","answerOption":[{"valueCoding":{"system":"http://hl7.org/fhir/request-priority","code":"routine","display":"Die Anfrage hat normale Priorität."},"initialSelected":true},{"valueCoding":{"system":"http://hl7.org/fhir/request-priority","code":"urgent","display":"Die Anfrage sollte dringend bearbeitet werden - höhere Priorität als normal."}},{"valueCoding":{"system":"http://hl7.org/fhir/request-priority","code":"asap","display":"Die Anfrage sollte so schnell wie möglich bearbeitet werden - höhere Priorität als dringend."}},{"valueCoding":{"system":"http://hl7.org/fhir/request-priority","code":"stat","display":"Die Anfrage sollte sofort bearbeitet werden - höchstmögliche Priorität. Z.B. bei einem Notfall."}}]}]},{"linkId":"receiver","text":"Empfänger","type":"group","item":[{"linkId":"receiver.practitioner","text":"Empfangende Person","type":"group","item":[{"linkId":"receiver.practitioner.title","text":"Titel","type":"string"},{"linkId":"receiver.practitioner.familyName","text":"Name","type":"string"},{"linkId":"receiver.practitioner.givenName","text":"Vorname","type":"string"},{"linkId":"receiver.practitioner.gln","text":"GLN","type":"string"},{"linkId":"receiver.practitioner.zsr","text":"ZSR","type":"string"},{"linkId":"receiver.practitioner.phone","text":"Telefon","type":"string"},{"linkId":"receiver.practitioner.email","text":"E-Mail","type":"string"}]},{"linkId":"receiver.organization","text":"Empfangende Organisation","type":"group","item":[{"linkId":"receiver.organization.name","text":"Name der Organisation","type":"string"},{"linkId":"receiver.organization.gln","definition":"http://fhir.ch/ig/ch-core/StructureDefinition-ch-core-organization-definitions.html#Organization.identifier:GLN","text":"GLN","type":"string"},{"linkId":"receiver.organization.streetAddressLine","text":"Strasse, Hausnummer, Postfach etc.","type":"string","repeats":true},{"linkId":"receiver.organization.postalCode","text":"PLZ","type":"string"},{"linkId":"receiver.organization.city","text":"Ort","type":"string"},{"linkId":"receiver.organization.country","text":"Land","type":"string"}]}]},{"linkId":"patient","text":"Patient","type":"group","required":true,"item":[{"linkId":"patient.familyName","text":"Name","type":"string"},{"linkId":"patient.maidenName","text":"Ledigname","type":"string"},{"linkId":"patient.givenName","text":"Vorname","type":"string"},{"linkId":"patient.localPid","text":"Lokale Patienten-ID","type":"string"},{"linkId":"patient.birthDate","text":"Geburtsdatum","type":"date"},{"linkId":"patient.gender","text":"Geschlecht","type":"choice","answerOption":[{"valueCoding":{"system":"http://hl7.org/fhir/administrative-gender","code":"male","display":"Männlich"},"initialSelected":true},{"valueCoding":{"system":"http://hl7.org/fhir/administrative-gender","code":"female","display":"Weiblich"}},{"valueCoding":{"system":"http://hl7.org/fhir/administrative-gender","code":"other","display":"Anderes"}}]},{"linkId":"patient.maritalStatus","definition":"http://fhir.ch/ig/ch-core/StructureDefinition/ch-core-patient#Patient.maritalStatus","text":"Zivilstand","type":"choice","answerOption":[{"valueCoding":{"system":"http://fhir.ch/ig/ch-core/CodeSystem/ech-11-maritalstatus","code":"1","display":"ledig"}},{"valueCoding":{"system":"http://fhir.ch/ig/ch-core/CodeSystem/ech-11-maritalstatus","code":"2","display":"verheiratet"}},{"valueCoding":{"system":"http://fhir.ch/ig/ch-core/CodeSystem/ech-11-maritalstatus","code":"3","display":"verwitwet"}},{"valueCoding":{"system":"http://fhir.ch/ig/ch-core/CodeSystem/ech-11-maritalstatus","code":"4","display":"geschieden"}},{"valueCoding":{"system":"http://fhir.ch/ig/ch-core/CodeSystem/ech-11-maritalstatus","code":"5","display":"unverheiratet"}},{"valueCoding":{"system":"http://fhir.ch/ig/ch-core/CodeSystem/ech-11-maritalstatus","code":"6","display":"in eingetragener Partnerschaft"}},{"valueCoding":{"system":"http://fhir.ch/ig/ch-core/CodeSystem/ech-11-maritalstatus","code":"7","display":"aufgelöste Partnerschaft"}},{"valueCoding":{"system":"http://fhir.ch/ig/ch-core/CodeSystem/ech-11-maritalstatus","code":"9","display":"unbekannt"}}]},{"linkId":"patient.phone","text":"Telefon","type":"string"},{"linkId":"patient.email","text":"E-Mail","type":"string"},{"linkId":"patient.streetAddressLine","text":"Strasse, Hausnummer, Postfach etc.","type":"string","repeats":true},{"linkId":"patient.postalCode","text":"PLZ","type":"string"},{"linkId":"patient.city","text":"Ort","type":"string"},{"linkId":"patient.country","text":"Land","type":"string"},{"linkId":"patient.languageOfCorrespondance","definition":"http://fhir.ch/ig/ch-core/StructureDefinition/ch-core-patient#Patient.communication:languageOfCorrespondance","text":"Korrespondenssprache","type":"choice","answerValueSet":"http://fhir.ch/ig/ch-epr-term/ValueSet/DocumentEntry.languageCode"},{"linkId":"patient.contactperson","definition":"http://fhir.ch/ig/ch-core/StructureDefinition/ch-core-patient#Patient.contact","text":"Kontaktperson","type":"group","item":[{"linkId":"patient.contactperson.relationship","definition":"http://fhir.ch/ig/ch-core/StructureDefinition/ch-core-patient#Patient.contact.relationship.text","text":"Beziehung","type":"string"},{"linkId":"patient.contactperson.familyName","definition":"http://fhir.ch/ig/ch-core/StructureDefinition/ch-core-patient#Patient.contact.name.family","text":"Name","type":"string"},{"linkId":"patient.contactperson.givenName","definition":"http://fhir.ch/ig/ch-core/StructureDefinition/ch-core-patient#Patient.contact.name.given","text":"Vorname","type":"string"},{"linkId":"patient.contactperson.phone","definition":"http://fhir.ch/ig/ch-core/StructureDefinition/ch-core-patient#Patient.contact.telecom.value","text":"Telefon","type":"string","repeats":true},{"linkId":"patient.contactperson.email","definition":"http://fhir.ch/ig/ch-core/StructureDefinition/ch-core-patient#Patient.contact.telecom.value","text":"E-Mail","type":"string"}]}]},{"linkId":"sender","text":"Absender","type":"group","required":true,"item":[{"linkId":"sender.author","text":"Verantwortlicher","type":"group","required":true,"item":[{"linkId":"sender.author.practitioner","text":"Verantwortliche Person","type":"group","item":[{"linkId":"sender.author.practitioner.title","text":"Titel","type":"string"},{"linkId":"sender.author.practitioner.familyName","text":"Name","type":"string"},{"linkId":"sender.author.practitioner.givenName","text":"Vorname","type":"string"},{"linkId":"sender.author.practitioner.gln","text":"GLN","type":"string"},{"linkId":"sender.author.practitioner.zsr","text":"ZSR","type":"string"},{"linkId":"sender.author.practitioner.phone","text":"Telefon","type":"string"},{"linkId":"sender.author.practitioner.email","text":"E-Mail","type":"string"}]},{"linkId":"sender.author.organization","text":"Verantwortliche Organisation","type":"group","item":[{"linkId":"sender.author.organization.name","text":"Name der Organisation","type":"string"},{"linkId":"sender.author.organization.streetAddressLine","text":"Strasse, Hausnummer, Postfach etc.","type":"string","repeats":true},{"linkId":"sender.author.organization.postalCode","text":"PLZ","type":"string"},{"linkId":"sender.author.organization.city","text":"Ort","type":"string"},{"linkId":"sender.author.organization.country","text":"Land","type":"string"}]}]},{"linkId":"sender.dataenterer","text":"Erfasser","type":"group","item":[{"linkId":"sender.dataenterer.practitioner","text":"Erfassende Person","type":"group","item":[{"linkId":"sender.dataenterer.practitioner.familyName","text":"Name","type":"string"},{"linkId":"sender.dataenterer.practitioner.givenName","text":"Vorname","type":"string"},{"linkId":"sender.dataenterer.practitioner.phone","text":"Telefon","type":"string"},{"linkId":"sender.dataenterer.practitioner.email","text":"E-Mail","type":"string"}]}]}]},{"linkId":"receiverCopies","text":"Kopieempfänger","type":"group","item":[{"linkId":"receiverCopy","definition":"http://fhir.ch/ig/ch-core/StructureDefinition/ch-core-practitionerrole#PractitionerRole","text":"Kopieempfangende Organisation oder Person","type":"group","repeats":true,"item":[{"linkId":"receiverCopy.organization.name","definition":"http://fhir.ch/ig/ch-core/StructureDefinition/ch-core-practitionerrole#PractitionerRole.practitioner","text":"Name der Organisation","type":"string","item":[{"linkId":"receiverCopy.practitionerRole.practitioner.title","definition":"http://fhir.ch/ig/ch-core/StructureDefinition/ch-core-humanname#HumanName.prefix","text":"Titel","type":"string"},{"linkId":"receiverCopy.practitionerRole.practitioner.familyName","definition":"http://fhir.ch/ig/ch-core/StructureDefinition/ch-core-humanname#HumanName.family","text":"Name","type":"string"},{"linkId":"receiverCopy.practitionerRole.practitioner.givenName","definition":"http://fhir.ch/ig/ch-core/StructureDefinition/ch-core-humanname#HumanName.given","text":"Vorname","type":"string"},{"linkId":"receiverCopy.practitionerRole.practitioner.phone","definition":"http://hl7.org/fhir/StructureDefinition/ContactPoint#ContactPoint.value","text":"Telefon","type":"string"},{"linkId":"receiverCopy.practitionerRole.practitioner.email","definition":"http://hl7.org/fhir/StructureDefinition/ContactPoint#ContactPoint.value","text":"E-Mail","type":"string"}]},{"linkId":"receiverCopy.title","definition":"http://fhir.ch/ig/ch-core/StructureDefinition/ch-core-practitionerrole#PractitionerRole.organization","text":"Titel","type":"string","item":[{"linkId":"receiverCopy.practitionerRole.organization.name","definition":"http://fhir.ch/ig/ch-core/StructureDefinition/ch-core-organization#Organization.name","text":"Name der Organisation","type":"string"},{"linkId":"receiverCopy.practitionerRole.organization.streetAddressLine","definition":"http://fhir.ch/ig/ch-core/StructureDefinition/ch-core-address#Address.line","text":"Strasse, Hausnummer, Postfach etc.","type":"string","repeats":true},{"linkId":"receiverCopy.practitionerRole.organization.postalCode","definition":"http://fhir.ch/ig/ch-core/StructureDefinition/ch-core-address#Address.postalCode","text":"PLZ","type":"string"},{"linkId":"receiverCopy.practitionerRole.organization.city","definition":"http://fhir.ch/ig/ch-core/StructureDefinition/ch-core-address#Address.city","text":"Ort","type":"string"},{"linkId":"receiverCopy.practitionerRole.organization.country","definition":"http://fhir.ch/ig/ch-core/StructureDefinition/ch-core-address#Address.country","text":"Land","type":"string"}]},{"linkId":"receiverCopy.familyName","text":"Name","type":"string"},{"linkId":"receiverCopy.givenName","text":"Vorname","type":"string"},{"linkId":"receiverCopy.phone","text":"Telefon","type":"string"},{"linkId":"receiverCopy.email","text":"E-Mail","type":"string"},{"linkId":"receiverCopy.streetAddressLine","text":"Strasse, Hausnummer, Postfach etc.","type":"string","repeats":true},{"linkId":"receiverCopy.postalCode","text":"PLZ","type":"string"},{"linkId":"receiverCopy.city","text":"Ort","type":"string"},{"linkId":"receiverCopy.country","text":"Land","type":"string"}]},{"linkId":"receiverCopy.patient","definition":"http://fhir.ch/ig/ch-core/StructureDefinition/ch-core-patient#Patient","text":"Patient selbst","type":"boolean"},{"linkId":"receiverCopy.relatedPerson","definition":"http://hl7.org/fhir/StructureDefinition/RelatedPerson#RelatedPerson","text":"Andere Person","type":"group","repeats":true,"item":[{"linkId":"receiverCopy.relatedPerson.familyName","definition":"http://hl7.org/fhir/StructureDefinition/RelatedPerson#RelatedPerson.name.family","text":"Name","type":"string"},{"linkId":"receiverCopy.relatedPerson.givenName","definition":"http://hl7.org/fhir/StructureDefinition/RelatedPerson#RelatedPerson.name.given","text":"Vorame","type":"string"},{"linkId":"receiverCopy.relatedPerson.phone","definition":"http://hl7.org/fhir/StructureDefinition/RelatedPerson#RelatedPerson.telecom.value","text":"Telefon","type":"string","repeats":true},{"linkId":"receiverCopy.relatedPerson.email","definition":"http://hl7.org/fhir/StructureDefinition/RelatedPerson#RelatedPerson.telecom.value","text":"E-Mail","type":"string"},{"linkId":"receiverCopy.relatedPerson.streetAddressLine","definition":"http://hl7.org/fhir/StructureDefinition/RelatedPerson#RelatedPerson.address.line","text":"Strasse, Hausnummer, Postfach etc.","type":"string","repeats":true},{"linkId":"receiverCopy.relatedPerson.postalCode","definition":"http://hl7.org/fhir/StructureDefinition/RelatedPerson#RelatedPerson.address.postalCode","text":"PLZ","type":"string"},{"linkId":"receiverCopy.relatedPerson.city","definition":"http://hl7.org/fhir/StructureDefinition/RelatedPerson#RelatedPerson.address.city","text":"Ort","type":"string"},{"linkId":"receiverCopy.relatedPerson.country","definition":"http://hl7.org/fhir/StructureDefinition/RelatedPerson#RelatedPerson.address.country","text":"Land","type":"string"}]}]},{"linkId":"consent","definition":"http://fhir.ch/ig/ch-lab-order/StructureDefinition/ch-lab-order-servicerequest#ServiceRequest.supportingInfo","text":"Einverständniserklärung","type":"group","item":[{"linkId":"consent.treatment","text":"Einverständnis des Patienten zur Behandlung","type":"string"},{"linkId":"consent.patientPrivacy","text":"Einverständnis des Patienten zum Datenschutz","type":"string"},{"linkId":"consent.research","text":"Einverständnis des Patienten zur Forschung","type":"string"},{"linkId":"consent.advancedCareDirective","text":"Patientenverfügung","type":"string"}]},{"linkId":"coverage","definition":"http://fhir.ch/ig/ch-lab-order/StructureDefinition/ch-lab-order-servicerequest#ServiceRequest.insurance","text":"Kostenträger","type":"group","item":[{"linkId":"coverage.uvg","text":"Unfallversicherung (nach UVG)","type":"string"},{"linkId":"coverage.kvg","text":"Grundversicherung (nach KVG)","type":"string"},{"linkId":"coverage.vvg","text":"Zusatzversicherung (nach VVG)","type":"string"},{"linkId":"coverage.vvgOther","text":"Andere (nach VVG)","type":"string"}]},{"linkId":"previousResult","definition":"http://fhir.ch/ig/ch-lab-order/StructureDefinition/ch-lab-order-servicerequest#ServiceRequest.supportingInfo","text":"Vorheriges Untersuchungsresultat","type":"group","item":[{"linkId":"previousResult.result","text":"Untersuchungsresultat","type":"string","repeats":true}]},{"linkId":"hematology","text":"Hematology","type":"group","item":[{"linkId":"lab","text":"Laborwerte","type":"choice","repeats":true,"answerOption":[{"valueCoding":{"system":"http://loinc.org","code":"24360-0","display":"Hemoglobin and Hematocrit panel - Blood"}},{"valueCoding":{"system":"http://loinc.org","code":"43113-0","display":"Hemoglobin electrophoresis panel in Blood"}},{"valueCoding":{"system":"http://loinc.org","code":"57021-8","display":"CBC W Auto Differential panel - Blood"}},{"valueCoding":{"system":"http://loinc.org","code":"58410-2","display":"CBC panel - Blood by Automated count"}},{"valueCoding":{"system":"http://loinc.org","code":"57023-4","display":"Auto Differential panel - Blood"}}]}]},{"linkId":"toxicology","text":"Toxicology","type":"group","item":[{"linkId":"tox","text":"Toxic Content","type":"choice","repeats":true,"answerOption":[{"valueCoding":{"system":"http://loinc.org","code":"29587-3","display":"Toxicology panel - Blood"}},{"valueCoding":{"system":"http://loinc.org","code":"54454-4","display":"Arsenic fractions panel - Urine"}},{"valueCoding":{"system":"http://loinc.org","code":"29589-9","display":"Heavy metals panel - Urine"}}]}]}]}},{"fullUrl":"http://example.com/fhir/QuestionnaireResponse/5-biol-monit","resource":{"resourceType":"QuestionnaireResponse","id":"5-biol-monit","meta":{"versionId":"1","lastUpdated":"2019-04-01T20:17:53.340+00:00","profile":["http://fhir.ch/ig/ch-orf/StructureDefinition/ch-orf-questionnaireresponse"]},"text":{"status":"generated","div":"<div xmlns=\"http://www.w3.org/1999/xhtml\"><p><b>Generated Narrative</b></p><div style=\"display: inline-block; background-color: #d9e0e7; padding: 6px; margin: 4px; border: 1px solid #8da1b4; border-radius: 5px; line-height: 60%\"><p style=\"margin-bottom: 0px\">Resource \"5-biol-monit\" Version \"1\" Updated \"2019-04-01T22:17:53.34+02:00\" </p><p style=\"margin-bottom: 0px\">Profile: <a href=\"http://fhir.ch/ig/ch-orf/StructureDefinition-ch-orf-questionnaireresponse.html\">CH ORF QuestionnaireResponse</a></p></div><p><b>questionnaire</b>: <a href=\"Questionnaire-5-biol-monit.html\">Lab Order Form Example</a></p><p><b>status</b>: completed</p><blockquote><p><b>item</b></p><p><b>linkId</b>: order</p><p><b>text</b>: Auftrag</p><blockquote><p><b>item</b></p><p><b>linkId</b>: order.placerOrderIdentifier</p><p><b>text</b>: Auftragsnummer des Auftraggebers</p></blockquote><blockquote><p><b>item</b></p><p><b>linkId</b>: order.placerOrderIdentifierDomain</p><p><b>text</b>: Identifier Domain der Auftragsnummer des Auftraggebers</p></blockquote><blockquote><p><b>item</b></p><p><b>linkId</b>: order.precedentDocumentIdentifier</p><p><b>text</b>: Identifier des Vorgängerdokuments</p></blockquote><blockquote><p><b>item</b></p><p><b>linkId</b>: order.notificationContactDocument</p><p><b>text</b>: Dringender Benachrichtigungskontakt für dieses Dokument</p></blockquote><blockquote><p><b>item</b></p><p><b>linkId</b>: order.notificationContactDocumentResponse</p><p><b>text</b>: Dringender Benachrichtigungskontakt für die Antwort auf dieses Dokument</p></blockquote><blockquote><p><b>item</b></p><p><b>linkId</b>: order.priority</p><p><b>text</b>: Auftragspriorität</p></blockquote></blockquote><blockquote><p><b>item</b></p><p><b>linkId</b>: receiver</p><p><b>text</b>: Empfänger</p><blockquote><p><b>item</b></p><p><b>linkId</b>: receiver.practitioner</p><p><b>text</b>: Empfangende Person</p></blockquote><blockquote><p><b>item</b></p><p><b>linkId</b>: receiver.organization</p><p><b>text</b>: Empfangende Organisation</p></blockquote></blockquote><blockquote><p><b>item</b></p><p><b>linkId</b>: patient</p><p><b>text</b>: Patient</p><blockquote><p><b>item</b></p><p><b>linkId</b>: patient.familyName</p><p><b>text</b>: Name</p></blockquote><blockquote><p><b>item</b></p><p><b>linkId</b>: patient.maidenName</p><p><b>text</b>: Ledigname</p></blockquote><blockquote><p><b>item</b></p><p><b>linkId</b>: patient.givenName</p><p><b>text</b>: Vorname</p></blockquote><blockquote><p><b>item</b></p><p><b>linkId</b>: patient.localPid</p><p><b>text</b>: Lokale Patienten-ID</p></blockquote><blockquote><p><b>item</b></p><p><b>linkId</b>: patient.birthDate</p><p><b>text</b>: Geburtsdatum</p></blockquote><blockquote><p><b>item</b></p><p><b>linkId</b>: patient.gender</p><p><b>text</b>: Geschlecht</p></blockquote><blockquote><p><b>item</b></p><p><b>linkId</b>: patient.maritalStatus</p><p><b>text</b>: Zivilstand</p></blockquote><blockquote><p><b>item</b></p><p><b>linkId</b>: patient.phone</p><p><b>text</b>: Telefon</p></blockquote><blockquote><p><b>item</b></p><p><b>linkId</b>: patient.email</p><p><b>text</b>: E-Mail</p></blockquote><blockquote><p><b>item</b></p><p><b>linkId</b>: patient.streetAddressLine</p><p><b>text</b>: Strasse, Hausnummer, Postfach etc.</p></blockquote><blockquote><p><b>item</b></p><p><b>linkId</b>: patient.postalCode</p><p><b>text</b>: PLZ</p></blockquote><blockquote><p><b>item</b></p><p><b>linkId</b>: patient.city</p><p><b>text</b>: Ort</p></blockquote><blockquote><p><b>item</b></p><p><b>linkId</b>: patient.country</p><p><b>text</b>: Land</p></blockquote></blockquote><blockquote><p><b>item</b></p><p><b>linkId</b>: sender</p><p><b>text</b>: Absender</p><blockquote><p><b>item</b></p><p><b>linkId</b>: sender.author</p><p><b>text</b>: Verantwortlicher</p></blockquote><blockquote><p><b>item</b></p><p><b>linkId</b>: sender.dataenterer</p><p><b>text</b>: Erfasser</p></blockquote></blockquote><blockquote><p><b>item</b></p><p><b>linkId</b>: receiverCopies</p><p><b>text</b>: Kopieempfänger</p><blockquote><p><b>item</b></p><p><b>linkId</b>: receiverCopy</p><p><b>text</b>: Kopieempfangende Organisation oder Person</p></blockquote><blockquote><p><b>item</b></p><p><b>linkId</b>: receiverCopy</p><p><b>text</b>: Kopieempfangende Organisation oder Person</p></blockquote></blockquote><blockquote><p><b>item</b></p><p><b>linkId</b>: hematology</p><p><b>text</b>: Hematology</p><blockquote><p><b>item</b></p><p><b>linkId</b>: lab</p><p><b>text</b>: Laborwerte</p></blockquote></blockquote><blockquote><p><b>item</b></p><p><b>linkId</b>: toxicology</p><p><b>text</b>: Toxicology</p><blockquote><p><b>item</b></p><p><b>linkId</b>: tox</p><p><b>text</b>: Toxic Content</p></blockquote></blockquote></div>"},"questionnaire":"http://fhir.ch/ig/ch-lab-order/Questionnaire/5-biol-monit","status":"completed","item":[{"linkId":"order","text":"Auftrag","item":[{"linkId":"order.placerOrderIdentifier","text":"Auftragsnummer des Auftraggebers","answer":[{"valueString":"123"}]},{"linkId":"order.placerOrderIdentifierDomain","text":"Identifier Domain der Auftragsnummer des Auftraggebers","answer":[{"valueString":"urn:oid:2.16.756.5.30"}]},{"linkId":"order.precedentDocumentIdentifier","text":"Identifier des Vorgängerdokuments","answer":[{"valueString":"1622f2fb-6ba3-4532-9aed-35b158def187"}]},{"linkId":"order.notificationContactDocument","text":"Dringender Benachrichtigungskontakt für dieses Dokument","item":[{"linkId":"order.notificationContactDocument.practitioner","text":"Zu benachrichtigende Person","item":[{"linkId":"order.notificationContactDocument.practitioner.title","text":"Titel","answer":[{"valueString":"Dr. med."}]},{"linkId":"order.notificationContactDocument.practitioner.familyName","text":"Name","answer":[{"valueString":"Erlenmeyer"}]},{"linkId":"order.notificationContactDocument.practitioner.givenName","text":"Vorname","answer":[{"valueString":"Eva"}]},{"linkId":"order.notificationContactDocument.practitioner.phone","text":"Telefon","answer":[{"valueString":"033 444 55 66"}]},{"linkId":"order.notificationContactDocument.practitioner.email","text":"E-Mail","answer":[{"valueString":"eva.erlenmeyer@labor-pipette.ch"}]}]}]},{"linkId":"order.notificationContactDocumentResponse","text":"Dringender Benachrichtigungskontakt für die Antwort auf dieses Dokument","item":[{"linkId":"order.notificationContactDocumentResponse.practitioner","text":"Zu benachrichtigende Person","item":[{"linkId":"order.notificationContactDocumentResponse.practitioner.title","text":"Titel","answer":[{"valueString":"Dr. med."}]},{"linkId":"order.notificationContactDocumentResponse.practitioner.familyName","text":"Name","answer":[{"valueString":"Porcellini"}]},{"linkId":"order.notificationContactDocumentResponse.practitioner.givenName","text":"Vorname","answer":[{"valueString":"Paulo"}]},{"linkId":"order.notificationContactDocumentResponse.practitioner.phone","text":"Telefon","answer":[{"valueString":"036 336 22 33"}]},{"linkId":"order.notificationContactDocumentResponse.practitioner.email","text":"E-Mail","answer":[{"valueString":"paulo.porcellini@suva.ch"}]}]}]},{"linkId":"order.priority","text":"Auftragspriorität","answer":[{"valueCoding":{"system":"http://hl7.org/fhir/request-priority","code":"routine"}}]}]},{"linkId":"receiver","text":"Empfänger","item":[{"linkId":"receiver.practitioner","text":"Empfangende Person","item":[{"linkId":"receiver.practitioner.title","text":"Titel","answer":[{"valueString":"Dr. med."}]},{"linkId":"receiver.practitioner.familyName","text":"Name","answer":[{"valueString":"Erlenmeyer"}]},{"linkId":"receiver.practitioner.givenName","text":"Vorname","answer":[{"valueString":"Eva"}]},{"linkId":"receiver.practitioner.gln","text":"GLN","answer":[{"valueString":"7601000050703"}]},{"linkId":"receiver.practitioner.phone","text":"Telefon","answer":[{"valueString":"+41322552525"}]},{"linkId":"receiver.practitioner.email","text":"E-Mail","answer":[{"valueString":"eva.erlenmeyer@labor-pipette.ch"}]}]},{"linkId":"receiver.organization","text":"Empfangende Organisation","item":[{"linkId":"receiver.organization.name","text":"Name der Organisation","answer":[{"valueString":"LaborPipette"}]},{"linkId":"receiver.organization.streetAddressLine","text":"Strasse, Hausnummer, Postfach etc.","answer":[{"valueString":"Laborstrasse 23"},{"valueString":"Postfach 3344"}]},{"linkId":"receiver.organization.postalCode","text":"PLZ","answer":[{"valueString":"4600"}]},{"linkId":"receiver.organization.city","text":"Ort","answer":[{"valueString":"Olten"}]},{"linkId":"receiver.organization.country","text":"Land","answer":[{"valueString":"Schweiz"}]}]}]},{"linkId":"patient","text":"Patient","item":[{"linkId":"patient.familyName","text":"Name","answer":[{"valueString":"Borer"}]},{"linkId":"patient.maidenName","text":"Ledigname","answer":[{"valueString":"Borer"}]},{"linkId":"patient.givenName","text":"Vorname","answer":[{"valueString":"Beat"}]},{"linkId":"patient.localPid","text":"Lokale Patienten-ID","answer":[{"valueString":"11.22.33.9788"}]},{"linkId":"patient.birthDate","text":"Geburtsdatum","answer":[{"valueDate":"1986-06-06"}]},{"linkId":"patient.gender","text":"Geschlecht","answer":[{"valueCoding":{"system":"http://hl7.org/fhir/administrative-gender","code":"male"}}]},{"linkId":"patient.maritalStatus","text":"Zivilstand","answer":[{"valueCoding":{"system":"http://fhir.ch/ig/ch-core/CodeSystem/ech-11-maritalstatus","code":"2","display":"verheiratet"}}]},{"linkId":"patient.phone","text":"Telefon","answer":[{"valueString":"+41 36 123 45 67"}]},{"linkId":"patient.email","text":"E-Mail","answer":[{"valueString":"beat.borer@example.ch"}]},{"linkId":"patient.streetAddressLine","text":"Strasse, Hausnummer, Postfach etc.","answer":[{"valueString":"Bleistrasse"},{"valueString":"117"}]},{"linkId":"patient.postalCode","text":"PLZ","answer":[{"valueString":"8008"}]},{"linkId":"patient.city","text":"Ort","answer":[{"valueString":"Rapperswil"}]},{"linkId":"patient.country","text":"Land","answer":[{"valueString":"Schweiz"}]}]},{"linkId":"sender","text":"Absender","item":[{"linkId":"sender.author","text":"Verantwortlicher","item":[{"linkId":"sender.author.practitioner","text":"Verantwortliche Person","item":[{"linkId":"sender.author.practitioner.title","text":"Titel","answer":[{"valueString":"Dr. med."}]},{"linkId":"sender.author.practitioner.familyName","text":"Name","answer":[{"valueString":"Porcellini"}]},{"linkId":"sender.author.practitioner.givenName","text":"Vorname","answer":[{"valueString":"Paulo"}]},{"linkId":"sender.author.practitioner.gln","text":"GLN","answer":[{"valueString":"7601000034545"}]},{"linkId":"sender.author.practitioner.phone","text":"Telefon","answer":[{"valueString":"036 336 22 33"}]},{"linkId":"sender.author.practitioner.email","text":"E-Mail","answer":[{"valueString":"paulo.porcellini@suva.ch"}]}]},{"linkId":"sender.author.organization","text":"Verantwortliche Organisation","item":[{"linkId":"sender.author.organization.name","text":"Name der Organisation","answer":[{"valueString":"Suva"}]},{"linkId":"sender.author.organization.streetAddressLine","text":"Strasse, Hausnummer, Postfach etc.","answer":[{"valueString":"Löwenplatz 1"},{"valueString":"Postfach 1122"}]},{"linkId":"sender.author.organization.postalCode","text":"PLZ","answer":[{"valueString":"6004"}]},{"linkId":"sender.author.organization.city","text":"Ort","answer":[{"valueString":"Luzern"}]},{"linkId":"sender.author.organization.country","text":"Land","answer":[{"valueString":"Schweiz"}]}]}]},{"linkId":"sender.dataenterer","text":"Erfasser","item":[{"linkId":"sender.dataenterer.practitioner","text":"Erfassende Person","item":[{"linkId":"sender.dataenterer.practitioner.familyName","text":"Name","answer":[{"valueString":"Porcellini"}]},{"linkId":"sender.dataenterer.practitioner.givenName","text":"Vorname","answer":[{"valueString":"Paulo"}]},{"linkId":"sender.dataenterer.practitioner.phone","text":"Telefon","answer":[{"valueString":"036 336 22 33"}]},{"linkId":"sender.dataenterer.practitioner.email","text":"E-Mail","answer":[{"valueString":"paulo.porcellini@suva.ch"}]}]}]}]},{"linkId":"receiverCopies","text":"Kopieempfänger","item":[{"linkId":"receiverCopy","text":"Kopieempfangende Organisation oder Person","item":[{"linkId":"receiverCopy.organization.name","text":"Name der Organisation","answer":[{"valueString":"Praxis Seeblick"}]},{"linkId":"receiverCopy.title","text":"Titel","answer":[{"valueString":"Dr. med."}]},{"linkId":"receiverCopy.familyName","text":"Name","answer":[{"valueString":"Meier"}]},{"linkId":"receiverCopy.givenName","text":"Vorname","answer":[{"valueString":"Sabine"}]},{"linkId":"receiverCopy.phone","text":"Telefon","answer":[{"valueString":"044 333 22 11"}]},{"linkId":"receiverCopy.email","text":"E-Mail","answer":[{"valueString":"sabine.meier@praxisseeblick.ch"}]}]},{"linkId":"receiverCopy","text":"Kopieempfangende Organisation oder Person","item":[{"linkId":"receiverCopy.familyName","text":"Name","answer":[{"valueString":"Musterfrau"}]},{"linkId":"receiverCopy.givenName","text":"Vorname","answer":[{"valueString":"Erika"}]},{"linkId":"receiverCopy.phone","text":"Telefon","answer":[{"valueString":"079 979 79 79"}]},{"linkId":"receiverCopy.email","text":"E-Mail","answer":[{"valueString":"erika@musterfrau.ch"}]},{"linkId":"receiverCopy.streetAddressLine","text":"Strasse, Hausnummer, Postfach etc.","answer":[{"valueString":"Musterweg"},{"valueString":"6a"}]},{"linkId":"receiverCopy.postalCode","text":"PLZ","answer":[{"valueString":"8000"}]},{"linkId":"receiverCopy.city","text":"Ort","answer":[{"valueString":"Zürich"}]},{"linkId":"receiverCopy.country","text":"Land","answer":[{"valueString":"Schweiz"}]}]}]},{"linkId":"hematology","text":"Hematology","item":[{"linkId":"lab","text":"Laborwerte","answer":[{"valueCoding":{"system":"http://loinc.org","code":"24360-0","display":"Hemoglobin and Hematocrit panel - Blood"}},{"valueCoding":{"system":"http://loinc.org","code":"43113-0","display":"Hemoglobin electrophoresis panel in Blood"}},{"valueCoding":{"system":"http://loinc.org","code":"57021-8","display":"CBC W Auto Differential panel - Blood"}},{"valueCoding":{"system":"http://loinc.org","code":"58410-2","display":"CBC panel - Blood by Automated count"}},{"valueCoding":{"system":"http://loinc.org","code":"57023-4","display":"Auto Differential panel - Blood"}}]}]},{"linkId":"toxicology","text":"Toxicology","item":[{"linkId":"tox","text":"Toxic Content","answer":[{"valueCoding":{"system":"http://loinc.org","code":"29587-3","display":"Toxicology panel - Blood"}},{"valueCoding":{"system":"http://loinc.org","code":"54454-4","display":"Arsenic fractions panel - Urine"}},{"valueCoding":{"system":"http://loinc.org","code":"29589-9","display":"Heavy metals panel - Urine"}}]}]}]}},{"fullUrl":"http://example.com/fhir/ServiceRequest/5-biol-monit","resource":{"resourceType":"ServiceRequest","id":"5-biol-monit","meta":{"profile":["http://fhir.ch/ig/ch-orf/StructureDefinition/ch-orf-servicerequest"]},"text":{"status":"generated","div":"<div xmlns=\"http://www.w3.org/1999/xhtml\"><p><b>Generated Narrative</b></p><div style=\"display: inline-block; background-color: #d9e0e7; padding: 6px; margin: 4px; border: 1px solid #8da1b4; border-radius: 5px; line-height: 60%\"><p style=\"margin-bottom: 0px\">Resource \"5-biol-monit\" </p><p style=\"margin-bottom: 0px\">Profile: <a href=\"http://fhir.ch/ig/ch-orf/StructureDefinition-ch-orf-servicerequest.html\">CH ORF ServiceRequest</a></p></div><p><b>identifier</b>: Placer Identifier: 123</p><p><b>status</b>: active</p><p><b>intent</b>: original-order</p><p><b>category</b>: Anforderung Laboruntersuchung <span style=\"background: LightGoldenRodYellow; margin: 4px; border: 1px solid khaki\"> (ch-lab-order-servicerequest-categories#RequestForLabExam)</span></p><p><b>priority</b>: urgent</p><p><b>code</b>: Hemoglobin and Hematocrit panel - Blood <span style=\"background: LightGoldenRodYellow; margin: 4px; border: 1px solid khaki\"> (<a href=\"https://loinc.org/\">LOINC</a>#24360-0; <a href=\"https://loinc.org/\">LOINC</a>#43113-0 \"Hemoglobin electrophoresis panel in Blood\"; <a href=\"https://loinc.org/\">LOINC</a>#57021-8 \"CBC W Auto Differential panel - Blood\"; <a href=\"https://loinc.org/\">LOINC</a>#58410-2 \"CBC panel - Blood by Automated count\"; <a href=\"https://loinc.org/\">LOINC</a>#57023-4 \"Auto Differential panel - Blood\"; <a href=\"https://loinc.org/\">LOINC</a>#29587-3 \"Toxicology panel - Blood\"; <a href=\"https://loinc.org/\">LOINC</a>#54454-4 \"Arsenic fractions panel - Urine\"; <a href=\"https://loinc.org/\">LOINC</a>#29589-9 \"Heavy metals panel - Urine\")</span></p><p><b>subject</b>: <a href=\"#Patient_BeatBorer\">See above (Patient/BeatBorer)</a></p><p><b>requester</b>: <a href=\"#PractitionerRole_PauloPorcelliniSuva\">See above (PractitionerRole/PauloPorcelliniSuva)</a></p><p><b>reasonCode</b>: Toxicology (qualifier value) <span style=\"background: LightGoldenRodYellow; margin: 4px; border: 1px solid khaki\"> (<a href=\"https://browser.ihtsdotools.org/\">SNOMED CT</a>#409967009)</span></p><p><b>insurance</b>: <a href=\"Coverage-HealthInsuranceCard.html\">Coverage/HealthInsuranceCard</a></p><p><b>specimen</b>: </p><ul><li><a href=\"Specimen-Blood.html\">Specimen/Blood</a></li><li><a href=\"Specimen-Urin.html\">Specimen/Urin</a></li></ul></div>"},"identifier":[{"type":{"coding":[{"system":"http://terminology.hl7.org/CodeSystem/v2-0203","code":"PLAC","display":"Placer Identifier"}]},"system":"urn:oid:2.16.756.5.30","value":"123"}],"status":"active","intent":"original-order","category":[{"coding":[{"system":"http://fhir.ch/ig/ch-lab-order/CodeSystem/ch-lab-order-servicerequest-categories","code":"RequestForLabExam","display":"Anforderung Laboruntersuchung"}]}],"priority":"urgent","code":{"coding":[{"system":"http://loinc.org","code":"24360-0","display":"Hemoglobin and Hematocrit panel - Blood"},{"system":"http://loinc.org","code":"43113-0","display":"Hemoglobin electrophoresis panel in Blood"},{"system":"http://loinc.org","code":"57021-8","display":"CBC W Auto Differential panel - Blood"},{"system":"http://loinc.org","code":"58410-2","display":"CBC panel - Blood by Automated count"},{"system":"http://loinc.org","code":"57023-4","display":"Auto Differential panel - Blood"},{"system":"http://loinc.org","code":"29587-3","display":"Toxicology panel - Blood"},{"system":"http://loinc.org","code":"54454-4","display":"Arsenic fractions panel - Urine"},{"system":"http://loinc.org","code":"29589-9","display":"Heavy metals panel - Urine"}]},"subject":{"reference":"Patient/BeatBorer"},"requester":{"reference":"PractitionerRole/PauloPorcelliniSuva"},"reasonCode":[{"coding":[{"system":"http://snomed.info/sct","code":"409967009"}],"text":"Toxicology (qualifier value)"}],"insurance":[{"reference":"Coverage/HealthInsuranceCard"}],"specimen":[{"reference":"Specimen/Blood"},{"reference":"Specimen/Urin"}]}}]}