<Bundle xmlns="http://hl7.org/fhir">
  <type value="document"/>
  <id value="1-1-LabOrder"/>
  <meta>
      <lastUpdated value="2020-03-09T12:31:59.738+00:00"/>
      <profile value="http://fhir.ch/ig/ch-lab-order/StructureDefinition/ch-lab-order-document"/>
  </meta>
  <identifier>
      <system value="urn:ietf:rfc:3986"/>
      <value value="urn:uuid:17931678-20b4-11e6-b67b-9e71128cca77"/>
  </identifier>
  <timestamp value="2012-02-04T14:00:00+01:00"/>
  <entry>
      <fullUrl value="http://test.fhir.ch/r4/Composition/1-1-LabOrder"/>
      <resource>
          <Composition>
              <id value="1-1-LabOrder"/>
              <language value="de-CH"/>
              <extension url="http://fhir.ch/ig/ch-core/StructureDefinition/ch-ext-epr-setid">
                  <valueIdentifier>
                      <system value="urn:ietf:rfc:3986"/>
                      <value value="urn:uuid:17931678-20b4-11e6-b67b-9e71128cca77"/>
                  </valueIdentifier>
              </extension>
              <extension url="http://fhir.ch/ig/ch-core/StructureDefinition/ch-ext-epr-versionnumber">
                  <valueUnsignedInt value="1"/>
              </extension>
              <extension url="http://fhir.ch/ig/ch-core/StructureDefinition/ch-ext-epr-informationrecipient">
                  <valueReference>
                      <reference value="Organisation/LaborPipette"/>
                  </valueReference>
              </extension>
              <identifier>
                  <system value="urn:ietf:rfc:3986"/>
                  <value value="urn:uuid:17931678-20b4-11e6-b67b-9e71128cca77"/>
              </identifier>
              <status value="final"/>
              <!-- TBD -->
              <type>
                <coding>
                      <system value="http://snomed.info/sct"/>
                      <code value="721965002"/>
                      <display value="Laboratory order (record artifact)"/>
                </coding>
              </type>
              <subject>
                  <reference value="Patient/RubellaMarina"/>
              </subject>
              <date value="2012-02-04T14:00:00+01:00"/>
              <author>
                  <extension url="http://fhir.ch/ig/ch-core/StructureDefinition/ch-ext-epr-time">
                      <valueDateTime value="2012-02-04T14:00:00+01:00"/>
                  </extension>
                  <reference value="Practitioner/FamilienHausarzt"/>
              </author>
              <author>
                  <reference value="Organization/Hausarzt"/>
              </author>
              <title value="LaborVerordnung"/>
              <confidentiality value="N">
                  <extension url="http://fhir.ch/ig/ch-core/StructureDefinition/ch-ext-epr-confidentialitycode">
                      <valueCodeableConcept>
                          <coding>
                              <system value="http://snomed.info/sct"/>
                              <code value="todo"/>
                              <display value="Normally accessible"/>
                          </coding>
                      </valueCodeableConcept>
                  </extension>
              </confidentiality>
              <custodian>
                  <reference value="Organization/Custodian"/>
              </custodian>
              <section>
                  <extension url="http://fhir.ch/ig/ch-core/StructureDefinition/ch-ext-epr-sectionid">
                      <valueIdentifier>
                          <system value="urn:ietf:rfc:3986"/>
                          <value value="urn:uuid:17931678-20b4-11e6-b67b-9e71128cca77"/>
                      </valueIdentifier>
                  </extension>
                  <title value="LaborVerordnung"/>
                  <code>
                      <coding>
                          <system value="http://loinc.org"/>
                          <code value="todo, probably no fitting code"/>
                          <display value="Lab Order"/>
                      </coding>
                  </code>

                  <entry>
                      <reference value="MedicationStatement/2-3-MedStatBeloczok"/>
                  </entry>
              </section>
          </Composition>
      </resource>
  </entry>
  <entry>
      <fullUrl value="http://test.fhir.ch/r4/Patient/MartinaRubella"/>
      <resource>
          <Patient>
              <id value="MartinaRubella"/>
              <identifier>
                  <type>
                      <coding>
                          <system value="http://terminology.hl7.org/CodeSystem/v2-0203"/>
                          <code value="MR"/>
                      </coding>
                  </type>
                  <system value="urn:oid:2.999"/>
                  <value value="11111111"/>
              </identifier>
              <name>
                  <family value="Rubella"/>
                  <given value="Martina"/>
              </name>
              <gender value="female"/>
              <birthDate value="todo"/>
              <address>
                  <line value="todo"/>
                  <city value="todo"/>
                  <postalCode value="todo"/>
                  <country value="CH"/>
              </address>
          </Patient>
      </resource>
  </entry>
  <entry>
      <fullUrl value="http://test.fhir.ch/r4/Practitioner/FamilienHausarzt"/>
      <resource>
          <Practitioner>
              <id value="FamilienHausarzt"/>
              <identifier>
                  <system value="urn:oid:2.51.1.3"/>
                  <value value="7601000234438"/>
              </identifier>
              <name>
                  <family value="Hausarzt"/>
                  <given value="Familien"/>
              </name>
          </Practitioner>
      </resource>
  </entry>
  <entry>
      <fullUrl value="http://test.fhir.ch/r4/Organization/PraxisHausarzt"/>
      <resource>
          <Organization>
              <id value="Hausarzt"/>
              <identifier>
                  <system value="urn:oid:2.51.1.3"/>
                  <value value="7601000234438"/>
              </identifier>
              <name value="Hausarzt"/>
              <telecom>
                  <extension url="http://hl7.org/fhir/StructureDefinition/iso21090-nullFlavor">
                      <valueCode value="NI"/>
                  </extension>
              </telecom>
              <address>
                  <line value="todo"/>
                  <city value="todo"/>
                  <postalCode value="todo"/>
                  <country value="CH"/>
              </address>
          </Organization>
      </resource>
  </entry>
  <entry>
      <fullUrl value="http://test.fhir.ch/r4/Organization/Custodian"/>
      <resource>
          <Organization>
              <id value="Custodian"/>
              <identifier>
                  <system value="urn:oid:2.51.1.3"/>
                  <value value="7601000234438"/>
              </identifier>
              <name value="Hausarzt"/>
          </Organization>
      </resource>
  </entry>
  <entry>
      <fullUrl value="http://test.fhir.ch/r4/Patient/MartinaRubellaRecipient"/>
      <resource>
          <Patient>
              <id value="MartinaRubellaRecipient"/>
              <name>
                  <family value="Rubella"/>
                  <given value="Martina"/>
              </name>
              <address>
                  <line value="todo"/>
                  <city value="todo"/>
                  <postalCode value="todo"/>
                  <country value="CH"/>
              </address>
          </Patient>
      </resource>
  </entry>
  <entry>
    <fullUrl value="http://test.fhir.ch/r4/MedicationStatement/2-3-MedStatBeloczok"/>
    <resource>
      <Questionnaire xmlns="http://hl7.org/fhir">
        <id value="3141"/> 
        <text> 
          <status value="generated"/> 
          <div xmlns="http://www.w3.org/1999/xhtml">
            <pre> 
                  1.Comorbidity?
                    1.1 Cardial Comorbidity
                      1.1.1 Angina?
                      1.1.2 MI?
                    1.2 Vascular Comorbidity?
                    ...
                  Histopathology
                    Abdominal
                      pT category?
                    ...
                </pre> 
          </div> 
        </text> 
        <url value="http://hl7.org/fhir/Questionnaire/3141"/> 
        <title value="Cancer Quality Forum Questionnaire 2012"/> 
        <status value="draft"/> 
        <subjectType value="Patient"/> 
        <date value="2012-01"/> 
        <item> 
          <linkId value="1"/> 
          <code> 
            <system value="http://example.org/system/code/sections"/> 
            <code value="COMORBIDITY"/> 
          </code> 
          <type value="group"/> 
          <item> 
            <linkId value="1.1"/> 
            <code> 
              <system value="http://example.org/system/code/questions"/> 
              <code value="COMORB"/> 
            </code> 
            <prefix value="1"/> 
            <type value="choice"/> 
            <answerValueSet value="http://hl7.org/fhir/ValueSet/yesnodontknow"/> 
            <item> 
              <linkId value="1.1.1"/> 
              <code> 
                <system value="http://example.org/system/code/sections"/> 
                <code value="CARDIAL"/> 
              </code> 
              <type value="group"/> 
              <enableWhen> 
                <question value="1.1"/> 
                <operator value="="/> 
                <answerCoding> 
                  <system value="http://terminology.hl7.org/CodeSystem/v2-0136"/> 
                  <code value="Y"/> 
                </answerCoding> 
              </enableWhen> 
              <item> 
                <linkId value="1.1.1.1"/> 
                <code> 
                  <system value="http://example.org/system/code/questions"/> 
                  <code value="COMORBCAR"/> 
                </code> 
                <prefix value="1.1"/> 
                <type value="choice"/> 
                <answerValueSet value="http://hl7.org/fhir/ValueSet/yesnodontknow"/> 
                <item> 
                  <linkId value="1.1.1.1.1"/> 
                  <code> 
                    <system value="http://example.org/system/code/questions"/> 
                    <code value="COMCAR00"/> 
                    <display value="Angina Pectoris"/> 
                  </code> 
                  <code> 
                    <system value="http://snomed.info/sct"/> 
                    <code value="194828000"/> 
                    <display value="Angina (disorder)"/> 
                  </code> 
                  <prefix value="1.1.1"/> 
                  <type value="choice"/> 
                  <answerValueSet value="http://hl7.org/fhir/ValueSet/yesnodontknow"/> 
                </item> 
                <item> 
                  <linkId value="1.1.1.1.2"/> 
                  <code> 
                    <system value="http://snomed.info/sct"/> 
                    <code value="22298006"/> 
                    <display value="Myocardial infarction (disorder)"/> 
                  </code> 
                  <prefix value="1.1.2"/> 
                  <type value="choice"/> 
                  <answerValueSet value="http://hl7.org/fhir/ValueSet/yesnodontknow"/> 
                </item> 
              </item> 
              <item> 
                <linkId value="1.1.1.2"/> 
                <code> 
                  <system value="http://example.org/system/code/questions"/> 
                  <code value="COMORBVAS"/> 
                </code> 
                <prefix value="1.2"/> 
                <type value="choice"/> 
                <answerValueSet value="http://hl7.org/fhir/ValueSet/yesnodontknow"/> 
              </item> 
            </item> 
          </item> 
        </item> 
        <item> 
          <linkId value="2"/> 
          <code> 
            <system value="http://example.org/system/code/sections"/> 
            <code value="HISTOPATHOLOGY"/> 
          </code> 
          <type value="group"/> 
          <item> 
            <linkId value="2.1"/> 
            <code> 
              <system value="http://example.org/system/code/sections"/> 
              <code value="ABDOMINAL"/> 
            </code> 
            <type value="group"/> 
            <item> 
              <linkId value="2.1.2"/> 
              <code> 
                <system value="http://example.org/system/code/questions"/> 
                <code value="STADPT"/> 
                <display value="pT category"/> 
              </code> 
              <type value="choice"/> 
            </item> 
          </item> 
        </item> 
      </Questionnaire>
        
    </resource>
  </entry>
</Bundle>