<Bundle xmlns="http://hl7.org/fhir">
  <id value="1-tvt" />
  <meta>
    <versionId value="1" />
    <lastUpdated value="2019-04-01T20:18:41.341+00:00" />
    <profile value="http://fhir.ch/ig/ch-orf/StructureDefinition/ch-orf-document" />
  </meta>
  <identifier>
    <system value="urn:ietf:rfc:3986" />
    <value value="urn:uuid:26d3dff7-ab05-4737-a49c-5eccd33595f8" />
  </identifier>
  <type value="document" />
  <timestamp value="2019-04-01T20:18:41.341+00:00" />

  <!-- entry[0] Composition => table of content -->
  <entry>
    <fullUrl value="http://example.com/fhir/Composition/1-tvt" />
    <resource>
      <Composition xmlns="http://hl7.org/fhir">
        <id value="1-tvt" />
        <meta>
          <versionId value="1" />
          <lastUpdated value="2021-02-18T17:04:38.520+00:00" />
          <profile value="http://fhir.ch/ig/ch-orf/StructureDefinition/ch-orf-composition" />
        </meta>

        <!-- extension data enterer-->
        <extension url="http://fhir.ch/ig/ch-core/StructureDefinition/ch-ext-epr-dataenterer">
          <extension url="enterer">
            <valueReference>
              <reference value="PractitionerRole/MarcMustermannArztpraxis" />
            </valueReference>
          </extension>
        </extension>

        <!-- extension urgentnoficationcontactforthisdocument, urgentnoficationcontactfortheresponsetothisdocument-->
        <extension url="http://fhir.ch/ig/ch-orf/StructureDefinition/ch-orf-urgentnoficationcontactforthisdocument">
          <valueReference>
            <reference value="PractitionerRole/EvaErlenmeyerLaborPipette" />
          </valueReference>
        </extension>
        <extension url="http://fhir.ch/ig/ch-orf/StructureDefinition/ch-orf-urgentnoficationcontactfortheresponsetothisdocument">
          <valueReference>
            <reference value="PractitionerRole/MarcMustermannArztpraxis" />
          </valueReference>
        </extension>
        <!-- extension  receiver -->
        <extension url="http://fhir.ch/ig/ch-orf/StructureDefinition/ch-orf-receiver">
          <valueReference>
            <reference value="PractitionerRole/EvaErlenmeyerLaborPipette" />
          </valueReference>
        </extension>
        <!-- extension copy receiver, 0..n-->
        <extension url="http://fhir.ch/ig/ch-orf/StructureDefinition/ch-orf-copyreceiver">
          <valueReference>
            <reference value="Organization/Gruppenpraxis" />
          </valueReference>
        </extension>
        <extension url="http://fhir.ch/ig/ch-orf/StructureDefinition/ch-orf-copyreceiver">
          <valueReference>
            <reference value="Patient/HansGuggindieluft" />
          </valueReference>
        </extension>

        <status value="final" />
        <!-- preliminary | final | amended | entered-in-error -->
        <!-- vorläufig | final | geändert | irrtümlich eingegeben -->

        <!-- DocumentEntry.type for Lab: -->
        <type>
          <coding>
            <system value="http://snomed.info/sct" />
            <code value="721965002" />
            <display value="Laboratory order (record artifact)" />
          </coding>
        </type>
        <!-- Metadaten für den Austausch medizinischer Daten, Anhang 3
          Value Set: DocumentEntry.typeCode (OID: 2.16.756.5.30.1.127.3.10.1.27)
          721965002 Laboratory order (record artifact) 2.16.840.1.113883.6.96
        -->

        <!-- DocumentEntry.type for Pathology: 
        <type>
          <coding>
            <system value="http://snomed.info/sct" />
            <code value="721966001" />
            <display value="Pathology order (record artifact)" />
          </coding>
        </type>
        -->

        <!-- Metadaten für den Austausch medizinischer Daten, Anhang 3
          Value Set: DocumentEntry.typeCode (OID: 2.16.756.5.30.1.127.3.10.1.27c)
          721965002 Laboratory order (record artifact) 2.16.840.1.113883.6.96
        -->

        <category>
          <coding>
            <system value="http://snomed.info/sct" />
            <code value="721963009" />
            <display value="Order (record artifact)" />
          </coding>
        </category>
        <!-- Metadaten für den Austausch medizinischer Daten, Anhang 3
          Value Set: DocumentEntry.classCode (OID: 2.16.756.5.30.1.127.3.10.1.3)
          721963009 Order (record artifact) 2.16.840.1.113883.6.96
        -->

        <subject>
          <reference value="Patient/HansGuggindieluft" />
        </subject>
        <date value="2019-03-31T11:46:09+02:00" />

        <author>
          <reference value="PractitionerRole/MarcMustermannArztpraxis" />
        </author>
        <title value="Order-Referral-Form 1-tvt" />

        <!-- sections -->
        <section>
          <title value="Order-Referral-Form 1-tvt" />
          <code>
            <coding>
              <system value="http://loinc.org" />
              <code value="93037-0" />
              <display value="Portable medical order form" />
            </coding>
          </code>
          <text>
            <status value="generated" />
            <div xmlns="http://www.w3.org/1999/xhtml">
              Order-Referral-Form 1-tvt
            </div>
          </text>
          <entry>
            <reference value="Questionnaire/1-tvt" />
          </entry>
          <entry>
            <reference value="QuestionnaireResponse/1-tvt" />
          </entry>
          <entry>
            <reference value="ServiceRequest/1-tvt" />
          </entry>
        </section>
      </Composition>
    </resource>
  </entry>

  <!-- entry[1] ch-core-Patient -->
  <entry>
    <fullUrl value="http://example.com/fhir/Patient/HansGuggindieluft" />
    <resource>
      <Patient xmlns="http://hl7.org/fhir">
        <id value="HansGuggindieluft" />
        <meta>
          <profile value="http://fhir.ch/ig/ch-core/StructureDefinition/ch-core-patient" />
        </meta>
        <!-- 
        <text>
          <status value="generated"/>
          <div xmlns="http://www.w3.org/1999/xhtml">
            <p>
              <b>Generated Narrative with Details</b>
            </p>
            <p>
              <b>id</b>: HansGuggindieluft
            </p>
            <p>
              <b>meta</b>: 
            </p>
            <p>
              <b>identifier</b>: 012/08.111111
            </p>
            <p>
              <b>name</b>: Hans Guggindieluft 
            </p>
            <p>
              <b>gender</b>: MALE
            </p>
            <p>
              <b>birthDate</b>: Jan 01, 1981
            </p>
            <p>
              <b>maritalStatus</b>: verheiratet 
              <span style="background: LightGoldenRodYellow">(Details : {http://fhir.ch/ig/ch-core/CodeSystem/ech-11-maritalstatus code &#39;6&#39; = &#39;6&#39;, given as &#39;in eingetragener Partnerschaft&#39;})</span>
            </p>
            <h3>Communications</h3>
            <table class="grid">
              <tr>
                <td>-</td>
                <td>
                  <b>Language</b>
                </td>
                <td>
                  <b>Preferred</b>
                </td>
              </tr>
              <tr>
                <td>*</td>
                <td>Deutsch (Schweiz) 
                  <span style="background: LightGoldenRodYellow">(Details : {urn:ietf:bcp:47 code &#39;de-CH&#39; = &#39;German (Region=Schweiz))</span>
                </td>
                <td>true</td>
              </tr>
            </table>
          </div>
        </text>
        -->
        <extension url="http://hl7.org/fhir/StructureDefinition/patient-birthPlace">
          <valueAddress>
            <city value="Köniz" />
            <state value="BE" />
            <country value="Schweiz" />
          </valueAddress>
        </extension>
        <!-- 
        <extension url="http://fhir.ch/ig/ch-core/StructureDefinition/ch-core-patient-ech-11-placeoforigin">
          <valueAddress>
            <city value="Köniz"/>
            <state value="BE"/>
          </valueAddress>
        </extension>
        <extension url="http://fhir.ch/ig/ch-core/StructureDefinition/ch-core-patient-religion">
          <valueCodeableConcept>
            <coding>
              <system value="http://fhir.ch/ig/ch-core/CodeSystem/ech-11-religion"/>
              <code value="111"/>
              <display value="evangelisch-reformierte (protestantische) Kirche"/>
            </coding>
            <coding>
              <system value="http://terminology.hl7.org/CodeSystem/v3-ReligiousAffiliation"/>
              <code value="1077"/>
              <display value="Protestant"/>
            </coding>
          </valueCodeableConcept>
        </extension>
        -->
        <identifier>
          <system value="urn:oid:2.16.756.5.32" />
          <value value="012/08.111114" />
        </identifier>
        <name>
          <family value="Guggindieluft" />
          <given value="Hans" />
        </name>
        <gender value="male" />
        <birthDate value="1981-01-01" />
        <maritalStatus>
          <coding>
            <system value="http://fhir.ch/ig/ch-core/CodeSystem/ech-11-maritalstatus" />
            <code value="2" />
            <display value="verheiratet" />
          </coding>
        </maritalStatus>
        <communication>
          <language>
            <coding>
              <system value="urn:ietf:bcp:47" />
              <code value="de-CH" />
            </coding>
            <text value="Deutsch (Schweiz)" />
          </language>
          <preferred value="true" />
        </communication>
      </Patient>
    </resource>
  </entry>

  <!--  entry[2] practitioner -->
  <entry>
    <fullUrl value="http://example.com/fhir/Practitioner/MarcMustermann" />
    <resource>
      <Practitioner xmlns="http://hl7.org/fhir">
        <id value="MarcMustermann" />
        <meta>
          <profile value="http://fhir.ch/ig/ch-core/StructureDefinition/ch-core-practitioner" />
        </meta>
        <identifier>
          <system value="urn:oid:2.51.1.3" />
          <value value="7601000050702" />
        </identifier>
        <name>
          <family value="Mustermann" />
          <given value="Marc" />
        </name>
      </Practitioner>
    </resource>
  </entry>

  <!-- entry[3] organization -->
  <entry>
    <fullUrl value="http://example.com/fhir/Organization/Gruppenpraxis" />
    <resource>
      <Organization xmlns="http://hl7.org/fhir">
        <id value="Gruppenpraxis" />
        <meta>
          <profile value="http://fhir.ch/ig/ch-core/StructureDefinition/ch-core-organization" />
        </meta>
        <name value="Gruppenpraxis Olten" />
        <address>
          <line value="Gerbergasse 12" />
          <city value="Olten" />
          <postalCode value="4600" />
          <country value="CH" />
        </address>
      </Organization>
    </resource>
  </entry>

  <!-- entry[4] practitionerrole -->
  <entry>
    <fullUrl value="http://example.com/fhir/PractitionerRole/MarcMustermannArztpraxis" />
    <resource>
      <PractitionerRole xmlns="http://hl7.org/fhir">
        <id value="MarcMustermannArztpraxis" />
        <meta>
          <profile value="http://fhir.ch/ig/ch-core/StructureDefinition/ch-core-practitionerrole" />
        </meta>
        <practitioner>
          <reference value="Practitioner/MarcMustermann" />
        </practitioner>
        <organization>
          <reference value="Organization/Gruppenpraxis" />
        </organization>
      </PractitionerRole>
    </resource>
  </entry>

  <!-- entry[5] questionnaire -->
  <entry>
    <fullUrl value="http://example.com/fhir/Questionnaire/1-tvt" />
    <resource>
      <Questionnaire xmlns="http://hl7.org/fhir">
        <id value="1-tvt" />
        <meta>
          <versionId value="1" />
          <lastUpdated value="2019-04-01T20:17:53.340+00:00" />
          <profile value="http://fhir.ch/ig/ch-orf/StructureDefinition/ch-orf-questionnaire" />
          <profile value="http://hl7.org/fhir/uv/sdc/StructureDefinition/sdc-questionnaire" />
          <profile value="http://hl7.org/fhir/uv/sdc/StructureDefinition/sdc-questionnaire-extract" />
        </meta>

        <!-- extensions -->
        <extension url="http://hl7.org/fhir/uv/sdc/StructureDefinition/sdc-questionnaire-targetStructureMap">
          <valueCanonical value="http://fhir.ch/ig/ch-orf/StructureMap/OrfQrToBundle" />
        </extension>
        <extension url="http://hl7.org/fhir/uv/sdc/StructureDefinition/sdc-questionnaire-sourceStructureMap">
          <valueCanonical value="http://fhir.ch/ig/ch-orf/StructureMap/OrfPrepopBundleToQr" />
        </extension>


        <extension url="http://hl7.org/fhir/uv/sdc/StructureDefinition/sdc-questionnaire-launchContext">
          <extension url="name">
            <valueId value="Bundle" />
          </extension>
          <extension url="type">
            <valueCode value="Bundle" />
          </extension>
          <extension url="description">
            <valueString value="The Bundle that is to be used to pre-populate the form" />
          </extension>
        </extension>

        <url value="http://fhir.ch/ig/ch-lab-order/Questionnaire/1-tvt" />
        <version value="0.9.1" />
        <name value="LabOrderFormExample" />
        <title value="Lab Order Form Example" />
        <status value="active" />

        <subjectType value="Patient" />
        <date value="2020-12-17" />
        <publisher value="HL7 Switzerland" />
        <contact>
          <name value="HL7 Switzerland" />
          <telecom>
            <system value="url" />
            <value value="https://www.hl7.ch/" />
          </telecom>
        </contact>
        <jurisdiction>
          <coding>
            <system value="urn:iso:std:iso:3166" />
            <code value="CH" />
          </coding>
        </jurisdiction>
        <copyright value="CC-BY-SA-4.0" />

        <!-- item[0] 1-tvt Questionnaire Example: order -->
        <item>
          <linkId value="order" />
          <text value="Auftrag" />
          <type value="group" />
          <required value="true" />
          <item>
            <linkId value="order.title" />
            <text value="Titel" />
            <type value="string" />
          </item>
          <item>
            <linkId value="order.type" />
            <text value="Typ" />
            <type value="choice" />
            <answerValueSet value="http://fhir.ch/ig/ch-epr-term/ValueSet/DocumentEntry.typeCode" />
          </item>
          <item>
            <linkId value="order.category" />
            <text value="Kategorie" />
            <type value="choice" />
            <answerValueSet value="http://fhir.ch/ig/ch-epr-term/ValueSet/DocumentEntry.classCode" />
          </item>
          <item>
            <linkId value="order.placerOrderIdentifier" />
            <text value="Auftragsnummer des Auftraggebers" />
            <type value="string" />
          </item>
          <item>
            <extension url="http://hl7.org/fhir/StructureDefinition/questionnaire-hidden">
              <valueBoolean value="true" />
            </extension>
            <linkId value="order.placerOrderIdentifierDomain" />
            <text value="Identifier Domain der Auftragsnummer des Auftraggebers" />
            <type value="string" />
          </item>
          <item>
            <linkId value="order.fillerOrderIdentifier" />
            <text value="Auftragsnummer des Auftragsempfängers" />
            <type value="string" />
          </item>
          <item>
            <extension url="http://hl7.org/fhir/StructureDefinition/questionnaire-hidden">
              <valueBoolean value="true" />
            </extension>
            <linkId value="order.fillerOrderIdentifierDomain" />
            <text value="Identifier Domain der Auftragsnummer des Auftragsempfängers" />
            <type value="string" />
          </item>
          <item>
            <extension url="http://hl7.org/fhir/StructureDefinition/questionnaire-hidden">
              <valueBoolean value="true" />
            </extension>
            <linkId value="order.precedentDocumentIdentifier" />
            <text value="Identifier des Vorgängerdokuments" />
            <type value="string" />
          </item>
          <item>
            <linkId value="order.notificationContactDocument" />
            <text value="Dringender Benachrichtigungskontakt für dieses Dokument" />
            <type value="group" />
            <item>
              <linkId value="order.notificationContactDocument.practitioner" />
              <text value="Zu benachrichtigende Person" />
              <type value="group" />
              <item>
                <linkId value="order.notificationContactDocument.practitioner.title" />
                <text value="Titel" />
                <type value="string" />
              </item>
              <item>
                <linkId value="order.notificationContactDocument.practitioner.familyName" />
                <text value="Name" />
                <type value="string" />
              </item>
              <item>
                <linkId value="order.notificationContactDocument.practitioner.givenName" />
                <text value="Vorname" />
                <type value="string" />
              </item>
              <item>
                <linkId value="order.notificationContactDocument.practitioner.phone" />
                <text value="Telefon" />
                <type value="string" />
              </item>
              <item>
                <linkId value="order.notificationContactDocument.practitioner.email" />
                <text value="E-Mail" />
                <type value="string" />
              </item>
            </item>
          </item>
          <item>
            <linkId value="order.notificationContactDocumentResponse" />
            <text value="Dringender Benachrichtigungskontakt für die Antwort auf dieses Dokument" />
            <type value="group" />
            <item>
              <linkId value="order.notificationContactDocumentResponse.practitioner" />
              <text value="Zu benachrichtigende Person" />
              <type value="group" />
              <item>
                <linkId value="order.notificationContactDocumentResponse.practitioner.title" />
                <text value="Titel" />
                <type value="string" />
              </item>
              <item>
                <linkId value="order.notificationContactDocumentResponse.practitioner.familyName" />
                <text value="Name" />
                <type value="string" />
              </item>
              <item>
                <linkId value="order.notificationContactDocumentResponse.practitioner.givenName" />
                <text value="Vorname" />
                <type value="string" />
              </item>
              <item>
                <linkId value="order.notificationContactDocumentResponse.practitioner.phone" />
                <text value="Telefon" />
                <type value="string" />
              </item>
              <item>
                <linkId value="order.notificationContactDocumentResponse.practitioner.email" />
                <text value="E-Mail" />
                <type value="string" />
              </item>
            </item>
          </item>
          <item>
            <linkId value="order.priority" />
            <text value="Auftragspriorität" />
            <type value="choice" />
            <answerOption>
              <valueCoding>
                <system value="http://hl7.org/fhir/request-priority" />
                <code value="routine" />
                <display value="Die Anfrage hat normale Priorität." />
              </valueCoding>
              <initialSelected value="true" />
            </answerOption>
            <answerOption>
              <valueCoding>
                <system value="http://hl7.org/fhir/request-priority" />
                <code value="urgent" />
                <display value="Die Anfrage sollte dringend bearbeitet werden - höhere Priorität als normal." />
              </valueCoding>
            </answerOption>
            <answerOption>
              <valueCoding>
                <system value="http://hl7.org/fhir/request-priority" />
                <code value="asap" />
                <display value="Die Anfrage sollte so schnell wie möglich bearbeitet werden - höhere Priorität als dringend." />
              </valueCoding>
            </answerOption>
            <answerOption>
              <valueCoding>
                <system value="http://hl7.org/fhir/request-priority" />
                <code value="stat" />
                <display value="Die Anfrage sollte sofort bearbeitet werden - höchstmögliche Priorität. Z.B. bei einem Notfall." />
              </valueCoding>
            </answerOption>
          </item>
        </item>

        <!-- item[1] 1-tvt Receiver: Person/organization who receives the request -->
        <item>
          <linkId value="receiver" />
          <text value="Empfänger" />
          <type value="group" />
          <item>
            <linkId value="receiver.practitioner" />
            <text value="Empfangende Person" />
            <type value="group" />
            <item>
              <linkId value="receiver.practitioner.title" />
              <text value="Titel" />
              <type value="string" />
            </item>
            <item>
              <linkId value="receiver.practitioner.familyName" />
              <text value="Name" />
              <type value="string" />
            </item>
            <item>
              <linkId value="receiver.practitioner.givenName" />
              <text value="Vorname" />
              <type value="string" />
            </item>
            <item>
              <linkId value="receiver.practitioner.gln" />
              <text value="GLN" />
              <type value="string" />
            </item>
            <item>
              <linkId value="receiver.practitioner.phone" />
              <text value="Telefon" />
              <type value="string" />
            </item>
            <item>
              <linkId value="receiver.practitioner.email" />
              <text value="E-Mail" />
              <type value="string" />
            </item>
          </item>
          <item>
            <linkId value="receiver.organization" />
            <text value="Empfangende Organisation" />
            <type value="group" />
            <item>
              <linkId value="receiver.organization.name" />
              <text value="Name der Organisation" />
              <type value="string" />
            </item>
            <item>
              <linkId value="receiver.organization.streetAddressLine" />
              <text value="Strasse, Hausnummer, Postfach etc." />
              <type value="string" />
              <repeats value="true" />
            </item>
            <item>
              <linkId value="receiver.organization.postalCode" />
              <text value="PLZ" />
              <type value="string" />
            </item>
            <item>
              <linkId value="receiver.organization.city" />
              <text value="Ort" />
              <type value="string" />
            </item>
            <item>
              <linkId value="receiver.organization.country" />
              <text value="Land" />
              <type value="string" />
            </item>
          </item>
        </item>

        <!-- item[2] Patient: The principle target of a particular Form Content is one patient -->
        <item>
          <linkId value="patient" />
          <text value="Patient" />
          <type value="group" />
          <item>
            <linkId value="patient.familyName" />
            <text value="Name" />
            <type value="string" />
          </item>
          <item>
            <linkId value="patient.maidenName" />
            <text value="Ledigname" />
            <type value="string" />
          </item>
          <item>
            <linkId value="patient.givenName" />
            <text value="Vorname" />
            <type value="string" />
          </item>
          <item>
            <linkId value="patient.localPid" />
            <text value="Lokale Patienten-ID" />
            <type value="string" />
          </item>
          <item>
            <linkId value="patient.birthDate" />
            <text value="Geburtsdatum" />
            <type value="date" />
          </item>
          <item>
            <linkId value="patient.gender" />
            <text value="Geschlecht" />
            <type value="choice" />
            <answerOption>
              <valueCoding>
                <system value="http://hl7.org/fhir/administrative-gender" />
                <code value="male" />
                <display value="Männlich" />
              </valueCoding>
              <initialSelected value="true" />
            </answerOption>
            <answerOption>
              <valueCoding>
                <system value="http://hl7.org/fhir/administrative-gender" />
                <code value="female" />
                <display value="Weiblich" />
              </valueCoding>
            </answerOption>
            <answerOption>
              <valueCoding>
                <system value="http://hl7.org/fhir/administrative-gender" />
                <code value="other" />
                <display value="Anderes" />
              </valueCoding>
            </answerOption>
          </item>
          <item>
            <linkId value="patient.phone" />
            <text value="Telefon" />
            <type value="string" />
          </item>
          <item>
            <linkId value="patient.email" />
            <text value="E-Mail" />
            <type value="string" />
          </item>
          <item>
            <linkId value="patient.streetAddressLine" />
            <text value="Strasse, Hausnummer, Postfach etc." />
            <type value="string" />
            <repeats value="true" />
          </item>
          <item>
            <linkId value="patient.postalCode" />
            <text value="PLZ" />
            <type value="string" />
          </item>
          <item>
            <linkId value="patient.city" />
            <text value="Ort" />
            <type value="string" />
          </item>
          <item>
            <linkId value="patient.country" />
            <text value="Land" />
            <type value="string" />
          </item>
        </item>

        <!-- item[3] sender, sender.author-->
        <item>
          <linkId value="sender" />
          <text value="Absender" />
          <type value="group" />
          <required value="true" />
          <item>
            <linkId value="sender.author" />
            <text value="Verantwortlicher" />
            <type value="group" />
            <required value="true" />
            <item>
              <linkId value="sender.author.practitioner" />
              <text value="Verantwortliche Person" />
              <type value="group" />
              <item>
                <linkId value="sender.author.practitioner.title" />
                <text value="Titel" />
                <type value="string" />
              </item>
              <item>
                <linkId value="sender.author.practitioner.familyName" />
                <text value="Name" />
                <type value="string" />
              </item>
              <item>
                <linkId value="sender.author.practitioner.givenName" />
                <text value="Vorname" />
                <type value="string" />
              </item>
              <item>
                <linkId value="sender.author.practitioner.gln" />
                <text value="GLN" />
                <type value="string" />
              </item>
              <item>
                <linkId value="sender.author.practitioner.phone" />
                <text value="Telefon" />
                <type value="string" />
              </item>
              <item>
                <linkId value="sender.author.practitioner.email" />
                <text value="E-Mail" />
                <type value="string" />
              </item>
            </item>
            <item>
              <linkId value="sender.author.organization" />
              <text value="Verantwortliche Organisation" />
              <type value="group" />
              <item>
                <linkId value="sender.author.organization.name" />
                <text value="Name der Organisation" />
                <type value="string" />
              </item>
              <item>
                <linkId value="sender.author.organization.streetAddressLine" />
                <text value="Strasse, Hausnummer, Postfach etc." />
                <type value="string" />
                <repeats value="true" />
              </item>
              <item>
                <linkId value="sender.author.organization.postalCode" />
                <text value="PLZ" />
                <type value="string" />
              </item>
              <item>
                <linkId value="sender.author.organization.city" />
                <text value="Ort" />
                <type value="string" />
              </item>
              <item>
                <linkId value="sender.author.organization.country" />
                <text value="Land" />
                <type value="string" />
              </item>
            </item>
          </item>
          <item>
            <linkId value="sender.dataenterer" />
            <text value="Erfasser" />
            <type value="group" />
            <item>
              <linkId value="sender.dataenterer.practitioner" />
              <text value="Erfassende Person" />
              <type value="group" />
              <item>
                <linkId value="sender.dataenterer.practitioner.familyName" />
                <text value="Name" />
                <type value="string" />
              </item>
              <item>
                <linkId value="sender.dataenterer.practitioner.givenName" />
                <text value="Vorname" />
                <type value="string" />
              </item>
              <item>
                <linkId value="sender.dataenterer.practitioner.phone" />
                <text value="Telefon" />
                <type value="string" />
              </item>
              <item>
                <linkId value="sender.dataenterer.practitioner.email" />
                <text value="E-Mail" />
                <type value="string" />
              </item>
            </item>
          </item>
        </item>

        <!-- item[4] receiverCopies, e.g. Patient, other HC-Organisation -->
        <item>
          <linkId value="receiverCopies" />
          <text value="Kopieempfänger" />
          <type value="group" />
          <item>
            <linkId value="receiverCopy" />
            <text value="Kopieempfangende Organisation oder Person" />
            <type value="group" />
            <repeats value="true" />
            <item>
              <linkId value="receiverCopy.organization.name" />
              <text value="Name der Organisation" />
              <type value="string" />
            </item>
            <item>
              <linkId value="receiverCopy.title" />
              <text value="Titel" />
              <type value="string" />
            </item>
            <item>
              <linkId value="receiverCopy.familyName" />
              <text value="Name" />
              <type value="string" />
            </item>
            <item>
              <linkId value="receiverCopy.givenName" />
              <text value="Vorname" />
              <type value="string" />
            </item>
            <item>
              <linkId value="receiverCopy.phone" />
              <text value="Telefon" />
              <type value="string" />
            </item>
            <item>
              <linkId value="receiverCopy.email" />
              <text value="E-Mail" />
              <type value="string" />
            </item>
            <item>
              <linkId value="receiverCopy.streetAddressLine" />
              <text value="Strasse, Hausnummer, Postfach etc." />
              <type value="string" />
              <repeats value="true" />
            </item>
            <item>
              <linkId value="receiverCopy.postalCode" />
              <text value="PLZ" />
              <type value="string" />
            </item>
            <item>
              <linkId value="receiverCopy.city" />
              <text value="Ort" />
              <type value="string" />
            </item>
            <item>
              <linkId value="receiverCopy.country" />
              <text value="Land" />
              <type value="string" />
            </item>
          </item>
        </item>

        <!-- item[5] lab specialty, here: hematology -->
        <item>
          <linkId value="hematology" />
          <text value="Hematology" />
          <type value="group" />
          <item>
            <linkId value="hemato-subset" />
            <text value="Hämatologie Subset" />
            <type value="choice" />
            <repeats value="true" />

            <answerOption>
              <valueCoding>
                <system value="http://loinc.org" />
                <code value="24360-0" />
                <display value="Hemoglobin and Hematocrit panel - Blood" />
              </valueCoding>
            </answerOption>
            <answerOption>
              <valueCoding>
                <system value="http://loinc.org" />
                <code value="43113-0" />
                <display value="Hemoglobin electrophoresis panel in Blood" />
              </valueCoding>
            </answerOption>
            <answerOption>
              <valueCoding>
                <system value="http://loinc.org" />
                <code value="57021-8" />
                <display value="CBC W Auto Differential panel - Blood" />
              </valueCoding>
            </answerOption>
            <answerOption>
              <valueCoding>
                <system value="http://loinc.org" />
                <code value="58410-2" />
                <display value="CBC panel - Blood by Automated count" />
              </valueCoding>
            </answerOption>
            <answerOption>
              <valueCoding>
                <system value="http://loinc.org" />
                <code value="57023-4" />
                <display value="Auto Differential panel - Blood" />
              </valueCoding>
            </answerOption>
          </item>
        </item>

        <!-- item[6] lab specialty, here: coagulation -->
        <item>
          <linkId value="coagulation" />
          <text value="Coagulation" />
          <type value="group" />
          <item>
            <linkId value="d-dimer" />
            <text value="D-Dimer" />
            <type value="choice" />
            <repeats value="true" />
            <answerOption>
              <valueCoding>
                <system value="http://loinc.org" />
                <code value="55398-2" />
                <display value="Short Fibrin D-dimer FEU and DDU panel - Platelet poor plasma" />
              </valueCoding>
            </answerOption>
          </item>
        </item>

        <!-- item[7] lab specialty, here: clinical chemistry -->
        <item>
          <linkId value="cc" />
          <text value="clinical chemistry" />
          <type value="group" />

          <!-- CRP C reactive Protein normal method -->
          <item>
            <linkId value="crp" />
            <text value="CRP" />
            <type value="choice" />
            <repeats value="true" />

            <answerOption>
              <valueCoding>
                <system value="http://loinc.org" />
                <code value="1988-5" />
                <display value="C reactive protein [Mass/Volume] in Serum or Plasma" />
              </valueCoding>
              <initialSelected value="true" /> <!-- diese Option wird am häufigsten gewählt: -->
            </answerOption>

            <answerOption>
              <valueCoding>
                <system value="http://loinc.org" />
                <code value="76485-2" />
                <display value="C reactive protein [Moles/volume] in Serum or Plasma" />
              </valueCoding>
            </answerOption>

            <!-- CRP C reactive Protein High sensitivity method -->
            <answerOption>
              <valueCoding>
                <system value="http://loinc.org" />
                <code value="30522-7" />
                <display value="C reactive protein [Mass/volume] in Serum or Plasma by High sensitivity method" />
              </valueCoding>
            </answerOption>

            <answerOption>
              <valueCoding>
                <system value="http://loinc.org" />
                <code value="76486-0" />
                <display value="C reactive protein [Moles/volume] in Serum or Plasma by High sensitivity method" />
              </valueCoding>
            </answerOption>
          </item>
        </item>

        <!-- item[8] consent -->
        <item>
          <linkId value="consent" />
          <definition value="http://fhir.ch/ig/ch-lab-order/StructureDefinition/ch-lab-order-servicerequest#ServiceRequest.supportingInfo" />
          <text value="Einverständniserklärung" />
          <type value="group" />
          <item>
            <linkId value="consent.treatment" />
            <text value="Einverständnis des Patienten zur Behandlung" />
            <type value="string" />
          </item>
          <item>
            <linkId value="consent.patientPrivacy" />
            <text value="Einverständnis des Patienten zum Datenschutz" />
            <type value="string" />
          </item>
          <item>
            <linkId value="consent.research" />
            <text value="Einverständnis des Patienten zur Forschung" />
            <type value="string" />
          </item>
          <item>
            <linkId value="consent.advancedCareDirective" />
            <text value="Patientenverfügung" />
            <type value="string" />
          </item>
        </item>
        <!-- item[9] coverage -->
        <item>
          <linkId value="coverage" />
          <definition value="http://fhir.ch/ig/ch-lab-order/StructureDefinition/ch-lab-order-servicerequest#ServiceRequest.insurance" />
          <text value="Kostenträger" />
          <type value="group" />

          <item>
            <linkId value="coverage.uvg" />
            <text value="Unfallversicherung (nach UVG)" />
            <type value="string" />
          </item>

          <item>
            <linkId value="coverage.kvg" />
            <text value="Grundversicherung (nach KVG)" />
            <type value="string" />
          </item>
          <item>
            <linkId value="coverage.vvg" />
            <text value="Zusatzversicherung (nach VVG)" />
            <type value="string" />
          </item>
          <item>
            <linkId value="coverage.vvgOther" />
            <text value="Andere (nach VVG)" />
            <type value="string" />
          </item>

        </item>


        <!-- item[10] previousResult  -->
        <item>
          <linkId value="previousResult" />
          <definition value="http://fhir.ch/ig/ch-lab-order/StructureDefinition/ch-lab-order-servicerequest#ServiceRequest.supportingInfo" />
          <text value="Vorheriges Untersuchungsresultat" />
          <type value="group" />
          <item>
            <linkId value="previousResult.result" />
            <text value="Untersuchungsresultat" />
            <type value="string" />
            <repeats value="true" />
          </item>
        </item>

      </Questionnaire>
    </resource>
  </entry>

  <!-- entry[6] questionnaireresponse -->
  <entry>
    <fullUrl value="http://example.com/fhir/QuestionnaireResponse/1-tvt" />
    <resource>
      <QuestionnaireResponse xmlns="http://hl7.org/fhir">
        <id value="1-tvt" />
        <meta>
          <versionId value="1" />
          <lastUpdated value="2019-04-01T20:17:53.340+00:00" />
          <profile value="http://fhir.ch/ig/ch-orf/StructureDefinition/ch-orf-questionnaireresponse" />
        </meta>

        <questionnaire value="http://fhir.ch/ig/ch-lab-order/Questionnaire/1-tvt" />
        <status value="completed" />

        <!-- item[0] order, order.placerOrderIdentifier, order.fillerOrderIdentifier -->
        <item>
          <linkId value="order" />
          <text value="Auftrag" />
          <item>
            <linkId value="order.placerOrderIdentifier" />
            <text value="Auftragsnummer des Auftraggebers" />
            <answer>
              <valueString value="123" />
            </answer>
          </item>
          <item>
            <linkId value="order.placerOrderIdentifierDomain" />
            <text value="Identifier Domain der Auftragsnummer des Auftraggebers" />
            <answer>
              <valueString value="urn:oid:1.3.4.5.6.7" />
            </answer>
          </item>
          <item>
            <linkId value="order.precedentDocumentIdentifier" />
            <text value="Identifier des Vorgängerdokuments" />
            <answer>
              <valueString value="1622f2fb-6ba3-4532-9aed-35b158def187" />
            </answer>
          </item>

          <!-- item[0][4]order.notificationContactDocument-->
          <item>
            <linkId value="order.notificationContactDocument" />
            <text value="Dringender Benachrichtigungskontakt für dieses Dokument" />
            <item>
              <linkId value="order.notificationContactDocument.practitioner" />
              <text value="Zu benachrichtigende Person" />
              <item>
                <linkId value="order.notificationContactDocument.practitioner.title" />
                <text value="Titel" />
                <answer>
                  <valueString value="Dr. med." />
                </answer>
              </item>
              <item>
                <linkId value="order.notificationContactDocument.practitioner.familyName" />
                <text value="Name" />
                <answer>
                  <valueString value="Erlenmeyer" />
                </answer>
              </item>
              <item>
                <linkId value="order.notificationContactDocument.practitioner.givenName" />
                <text value="Vorname" />
                <answer>
                  <valueString value="Eva" />
                </answer>
              </item>
              <item>
                <linkId value="order.notificationContactDocument.practitioner.phone" />
                <text value="Telefon" />
                <answer>
                  <valueString value="033 444 55 66" />
                </answer>
              </item>
              <item>
                <linkId value="order.notificationContactDocument.practitioner.email" />
                <text value="E-Mail" />
                <answer>
                  <valueString value="eva.erlenmeyer@labor-pipette.ch" />
                </answer>
              </item>
            </item>
          </item>

          <!-- item[0][5]order.notificationContactDocumentResponse-->
          <item>
            <linkId value="order.notificationContactDocumentResponse" />
            <text value="Dringender Benachrichtigungskontakt für die Antwort auf dieses Dokument" />
            <item>
              <linkId value="order.notificationContactDocumentResponse.practitioner" />
              <text value="Zu benachrichtigende Person" />
              <item>
                <linkId value="order.notificationContactDocumentResponse.practitioner.title" />
                <text value="Titel" />
                <answer>
                  <valueString value="Dr. med." />
                </answer>
              </item>
              <item>
                <linkId value="order.notificationContactDocumentResponse.practitioner.familyName" />
                <text value="Name" />
                <answer>
                  <valueString value="Mustermann" />
                </answer>
              </item>
              <item>
                <linkId value="order.notificationContactDocumentResponse.practitioner.givenName" />
                <text value="Vorname" />
                <answer>
                  <valueString value="Marc" />
                </answer>
              </item>
              <item>
                <linkId value="order.notificationContactDocumentResponse.practitioner.phone" />
                <text value="Telefon" />
                <answer>
                  <valueString value="033 444 55 66" />
                </answer>
              </item>
              <item>
                <linkId value="order.notificationContactDocumentResponse.practitioner.email" />
                <text value="E-Mail" />
                <answer>
                  <valueString value="peter.presto@arztpraxis.ch" />
                </answer>
              </item>
            </item>
          </item>
          <item>
            <linkId value="order.priority" />
            <text value="Auftragspriorität" />
            <answer>
              <valueCoding>
                <system value="http://hl7.org/fhir/request-priority" />
                <code value="routine" />
              </valueCoding>
            </answer>
          </item>
        </item>

        <!-- item[1] receiver, Person/organization who receives the Order -->
        <item>
          <linkId value="receiver" />
          <text value="Empfänger" />

          <!-- item[1][0] receiver Practitioner who receives Order -->
          <item>
            <linkId value="receiver.practitioner" />
            <text value="Empfangende Person" />
            <item>
              <linkId value="receiver.practitioner.title" />
              <text value="Titel" />
              <answer>
                <valueString value="Dr. med." />
              </answer>
            </item>
            <item>
              <linkId value="receiver.practitioner.familyName" />
              <text value="Name" />
              <answer>
                <valueString value="Erlenmeyer" />
              </answer>
            </item>
            <item>
              <linkId value="receiver.practitioner.givenName" />
              <text value="Vorname" />
              <answer>
                <valueString value="Eva" />
              </answer>
            </item>
            <item>
              <linkId value="receiver.practitioner.gln" />
              <text value="GLN" />
              <answer>
                <valueString value="7601000050703" />
              </answer>
            </item>
            <item>
              <linkId value="receiver.practitioner.phone" />
              <text value="Telefon" />
              <answer>
                <valueString value="+41322552525" />
              </answer>
            </item>
            <item>
              <linkId value="receiver.practitioner.email" />
              <text value="E-Mail" />
              <answer>
                <valueString value="eva.erlenmeyer@labor-pipette.ch" />
              </answer>
            </item>
          </item>

          <!-- item[1][1] receiver Organization which receives Order -->
          <item>
            <linkId value="receiver.organization" />
            <text value="Empfangende Organisation" />
            <item>
              <linkId value="receiver.organization.name" />
              <text value="Name der Organisation" />
              <answer>
                <valueString value="Labor Pipette" />
              </answer>
            </item>
            <item>
              <linkId value="receiver.organization.streetAddressLine" />
              <text value="Strasse, Hausnummer, Postfach etc." />
              <answer>
                <valueString value="Laborstrasse 23" />
              </answer>
              <answer>
                <valueString value="Postfach 44" />
              </answer>
            </item>
            <item>
              <linkId value="receiver.organization.postalCode" />
              <text value="PLZ" />
              <answer>
                <valueString value="4600" />
              </answer>
            </item>
            <item>
              <linkId value="receiver.organization.city" />
              <text value="Ort" />
              <answer>
                <valueString value="Olten" />
              </answer>
            </item>
            <item>
              <linkId value="receiver.organization.country" />
              <text value="Land" />
              <answer>
                <valueString value="Schweiz" />
              </answer>
            </item>
          </item>
        </item>

        <!-- item[2] patient -->
        <item>
          <linkId value="patient" />
          <text value="Patient" />
          <item>
            <linkId value="patient.familyName" />
            <text value="Name" />
            <answer>
              <valueString value="Guggindieluft" />
            </answer>
          </item>
          <item>
            <linkId value="patient.maidenName" />
            <text value="Ledigname" />
            <answer>
              <valueString value="Bering" /> <!-- @value kann nicht leer sein -->
            </answer>
          </item>
          <item>
            <linkId value="patient.givenName" />
            <text value="Vorname" />
            <answer>
              <valueString value="Hans" />
            </answer>
          </item>
          <item>
            <linkId value="patient.localPid" />
            <text value="Lokale Patienten-ID" />
            <answer>
              <valueString value="11.22.33.5678" />
            </answer>
          </item>
          <item>
            <linkId value="patient.birthDate" />
            <text value="Geburtsdatum" />
            <answer>
              <valueDate value="1981-01-01" />
            </answer>
          </item>
          <item>
            <linkId value="patient.gender" />
            <text value="Geschlecht" />
            <answer>
              <valueCoding>
                <system value="http://hl7.org/fhir/administrative-gender" />
                <code value="male" />
              </valueCoding>
            </answer>
          </item>
          <item>
            <linkId value="patient.phone" />
            <text value="Telefon" />
            <answer>
              <valueString value="079 979 79 79" />
            </answer>
          </item>
          <item>
            <linkId value="patient.email" />
            <text value="E-Mail" />
            <answer>
              <valueString value="erika@musterfrau.ch" />
            </answer>
          </item>
          <item>
            <linkId value="patient.streetAddressLine" />
            <text value="Strasse, Hausnummer, Postfach etc." />
            <answer>
              <valueString value="Musterweg" />
            </answer>
            <answer>
              <valueString value="6a" />
            </answer>
          </item>
          <item>
            <linkId value="patient.postalCode" />
            <text value="PLZ" />
            <answer>
              <valueString value="8000" />
            </answer>
          </item>
          <item>
            <linkId value="patient.city" />
            <text value="Ort" />
            <answer>
              <valueString value="Zürich" />
            </answer>
          </item>
          <item>
            <linkId value="patient.country" />
            <text value="Land" />
            <answer>
              <valueString value="Schweiz" />
            </answer>
          </item>
        </item>

        <!-- item[3] sender, sender.author-->
        <item>
          <linkId value="sender" />
          <text value="Absender" />
          <item>
            <linkId value="sender.author" />
            <text value="Verantwortlicher" />

            <!-- item[3][0][0] sender, sender.author.practitioner -->
            <item>
              <linkId value="sender.author.practitioner" />
              <text value="Verantwortliche Person" />
              <item>
                <linkId value="sender.author.practitioner.title" />
                <text value="Titel" />
                <answer>
                  <valueString value="Dr. med." />
                </answer>
              </item>
              <item>
                <linkId value="sender.author.practitioner.familyName" />
                <text value="Name" />
                <answer>
                  <valueString value="Mustermann" />
                </answer>
              </item>
              <item>
                <linkId value="sender.author.practitioner.givenName" />
                <text value="Vorname" />
                <answer>
                  <valueString value="Marc" />
                </answer>
              </item>
              <item>
                <linkId value="sender.author.practitioner.gln" />
                <text value="GLN" />
                <answer>
                  <valueString value="7601000034321" />
                </answer>
              </item>
              <item>
                <linkId value="sender.author.practitioner.phone" />
                <text value="Telefon" />
                <answer>
                  <valueString value="033 333 22 11" />
                </answer>
              </item>
              <item>
                <linkId value="sender.author.practitioner.email" />
                <text value="E-Mail" />
                <answer>
                  <valueString value="marc.mustermann@gruppenpraxis.ch" />
                </answer>
              </item>
            </item>

            <!-- item[3][0][1] sender, sender.author.organization -->
            <item>
              <linkId value="sender.author.organization" />
              <text value="Verantwortliche Organisation" />
              <item>
                <linkId value="sender.author.organization.name" />
                <text value="Name der Organisation" />
                <answer>
                  <valueString value="Gruppenpraxis" />
                </answer>
              </item>
              <item>
                <linkId value="sender.author.organization.streetAddressLine" />
                <text value="Strasse, Hausnummer, Postfach etc." />
                <answer>
                  <valueString value="Gerbergasse 12" />
                </answer>
                <answer>
                  <valueString value="Postfach 144" />
                </answer>
              </item>
              <item>
                <linkId value="sender.author.organization.postalCode" />
                <text value="PLZ" />
                <answer>
                  <valueString value="4600" />
                </answer>
              </item>
              <item>
                <linkId value="sender.author.organization.city" />
                <text value="Ort" />
                <answer>
                  <valueString value="Olten" />
                </answer>
              </item>
              <item>
                <linkId value="sender.author.organization.country" />
                <text value="Land" />
                <answer>
                  <valueString value="Schweiz" />
                </answer>
              </item>
            </item>
          </item>

          <!-- item[3][1][0] sender, sender.dataenterer -->
          <item>
            <linkId value="sender.dataenterer" />
            <text value="Erfasser" />
            <item>
              <linkId value="sender.dataenterer.practitioner" />
              <text value="Erfassende Person" />
              <item>
                <linkId value="sender.dataenterer.practitioner.familyName" />
                <text value="Name" />
                <answer>
                  <valueString value="Mustermann" />
                </answer>
              </item>
              <item>
                <linkId value="sender.dataenterer.practitioner.givenName" />
                <text value="Vorname" />
                <answer>
                  <valueString value="Marc" />
                </answer>
              </item>
              <item>
                <linkId value="sender.dataenterer.practitioner.phone" />
                <text value="Telefon" />
                <answer>
                  <valueString value="033 333 22 11" />
                </answer>
              </item>
              <item>
                <linkId value="sender.dataenterer.practitioner.email" />
                <text value="E-Mail" />
                <answer>
                  <valueString value="marc.mustermann@gruppenpraxis.ch" />
                </answer>
              </item>
            </item>
          </item>
        </item>

        <!-- item[4] receiver Copies, e.g. Patient, other HC-Organisation -->
        <item>
          <linkId value="receiverCopies" />
          <text value="Kopieempfänger" />

          <!-- item[4][0] receiver Copy Organization-->
          <item>
            <linkId value="receiverCopy" />
            <text value="Kopieempfangende Organisation oder Person" />
            <item>
              <linkId value="receiverCopy.organization.name" />
              <text value="Name der Organisation" />
              <answer>
                <valueString value="Praxis Seeblick" />
              </answer>
            </item>
            <item>
              <linkId value="receiverCopy.title" />
              <text value="Titel" />
              <answer>
                <valueString value="Dr. med." />
              </answer>
            </item>
            <item>
              <linkId value="receiverCopy.familyName" />
              <text value="Name" />
              <answer>
                <valueString value="Meier" />
              </answer>
            </item>
            <item>
              <linkId value="receiverCopy.givenName" />
              <text value="Vorname" />
              <answer>
                <valueString value="Sabine" />
              </answer>
            </item>
            <item>
              <linkId value="receiverCopy.phone" />
              <text value="Telefon" />
              <answer>
                <valueString value="044 333 22 11" />
              </answer>
            </item>
            <item>
              <linkId value="receiverCopy.email" />
              <text value="E-Mail" />
              <answer>
                <valueString value="sabine.meier@praxisseeblick.ch" />
              </answer>
            </item>
          </item>
          <item>
            <linkId value="receiverCopy" />
            <text value="Kopieempfangende Organisation oder Person" />
            <item>
              <linkId value="receiverCopy.familyName" />
              <text value="Name" />
              <answer>
                <valueString value="Meier" />
              </answer>
            </item>
            <item>
              <linkId value="receiverCopy.givenName" />
              <text value="Vorname" />
              <answer>
                <valueString value="Sabine" />
              </answer>
            </item>
            <item>
              <linkId value="receiverCopy.phone" />
              <text value="Telefon" />
              <answer>
                <valueString value="044 333 22 11" />
              </answer>
            </item>
            <item>
              <linkId value="receiverCopy.email" />
              <text value="E-Mail" />
              <answer>
                <valueString value="sabine.meier@praxis.ch" />
              </answer>
            </item>
            <item>
              <linkId value="receiverCopy.streetAddressLine" />
              <text value="Strasse, Hausnummer, Postfach etc." />
              <answer>
                <valueString value="Musterweg" />
              </answer>
              <answer>
                <valueString value="6a" />
              </answer>
            </item>
            <item>
              <linkId value="receiverCopy.postalCode" />
              <text value="PLZ" />
              <answer>
                <valueString value="6330" />
              </answer>
            </item>
            <item>
              <linkId value="receiverCopy.city" />
              <text value="Ort" />
              <answer>
                <valueString value="Cham" />
              </answer>
            </item>
            <item>
              <linkId value="receiverCopy.country" />
              <text value="Land" />
              <answer>
                <valueString value="Schweiz" />
              </answer>
            </item>
          </item>
        </item>

        <!-- item[5] Specialty Hematology Auto Differential panel - Blood -->
        <item>
          <linkId value="hematology" />
          <text value="Hematology" />
          <item>
            <linkId value="hemato-subset" />
            <text value="Hämatologie Subset" />

            <answer>
              <valueCoding>
                <system value="http://loinc.org" />
                <code value="24360-0" />
                <display value="Hemoglobin and Hematocrit panel - Blood" />
              </valueCoding>
            </answer>
            <answer>
              <valueCoding>
                <system value="http://loinc.org" />
                <code value="43113-0" />
                <display value="Hemoglobin electrophoresis panel in Blood" />
              </valueCoding>
            </answer>
            <answer>
              <valueCoding>
                <system value="http://loinc.org" />
                <code value="57021-8" />
                <display value="CBC W Auto Differential panel - Blood" />
              </valueCoding>
            </answer>
            <answer>
              <valueCoding>
                <system value="http://loinc.org" />
                <code value="58410-2" />
                <display value="CBC panel - Blood by Automated count" />
              </valueCoding>
            </answer>
            <answer>
              <valueCoding>
                <system value="http://loinc.org" />
                <code value="57023-4" />
                <display value="Auto Differential panel - Blood" />
              </valueCoding>
            </answer>
          </item>
        </item>

        <!-- item[6] Specialty Coagulation D-Dimer -->
        <item>
          <linkId value="coagulation" />
          <text value="Coagulation" />
          <item>
            <linkId value="d-dimer" />
            <text value="D-Dimer" />

            <answer>
              <valueCoding>
                <system value="http://loinc.org" />
                <code value="55398-2" />
                <display value="Short Fibrin D-dimer FEU and DDU panel - Platelet poor plasma" />
              </valueCoding>
            </answer>
          </item>
        </item>

        <!-- item[7] Clinical chemistry: CRP C reactive Protein-->
        <item>
          <linkId value="cc" />
          <text value="clinical chemistry" />

          <!-- item[7.0] CRP C reactive Protein normal method -->
          <item>
            <linkId value="crp" />
            <text value="CRP" />

            <answer>
              <valueCoding>
                <system value="http://loinc.org" />
                <code value="1988-5" />
                <display value="C reactive protein [Mass/volume] in Serum or Plasma" />
              </valueCoding>
            </answer>
          </item>
        </item>
      </QuestionnaireResponse>
    </resource>
  </entry>

  <!-- entry[7] serviceRequest -->
  <entry>
    <fullUrl value="http://example.com/fhir/ServiceRequest/1-tvt" />
    <resource>
      <ServiceRequest xmlns="http://hl7.org/fhir">
        <id value="1-tvt" />
        <meta>
          <profile value="http://fhir.ch/ig/ch-orf/StructureDefinition/ch-orf-servicerequest" />
        </meta>

        <identifier>
          <type>
            <coding>
              <system value="http://terminology.hl7.org/CodeSystem/v2-0203" />
              <code value="PLAC" />
              <display value="Placer Identifier" />
            </coding>
          </type>
          <system value="urn:oid:1.3.4.5.6.7" />
          <value value="123" />
        </identifier>
        <identifier>
          <type>
            <coding>
              <system value="http://terminology.hl7.org/CodeSystem/v2-0203" />
              <code value="FILL" />
              <display value="Filler Identifier" />
            </coding>
          </type>
          <system value="urn:oid:7.8.9.10.11" />
          <value value="456" />
        </identifier>

        <status value="active" />
        <!-- draft | active | on-hold | revoked | completed | entered-in-error | unknown -->

        <intent value="original-order" />
        <!-- proposal | plan | directive | order | original-order | reflex-order | filler-order | instance-order | option -->

        <category>
          <!-- 0..* Classification of service, Service Request Category Codes (Example) -->
          <!-- Value Set http://hl7.org/fhir/ValueSet/servicerequest-category -->
          <coding>
            <system value="http://snomed.info/sct" />
            <code value="108252007" />
          </coding>
          <text value="Laboratory procedure (procedure)" />
        </category>

        <priority value="urgent" /> <!-- 0..1 routine | urgent | asap | stat -->

        <subject>
          <reference value="Patient/HansGuggindieluft" />
        </subject>
        <requester>
          <!-- 0..1 Reference(Practitioner|PractitionerRole|Organization|
          Patient|RelatedPerson|Device) Who/what is requesting service -->
          <reference value="PractitionerRole/MarcMustermannArztpraxis" />
        </requester>

        <reasonCode>
          <!-- 0..* CodeableConcept Explanation/Justification for procedure or service -->
          <coding>
            <system value="http://snomed.info/sct" />
            <code value="404223003" />
          </coding>
          <text value="Deep venous thrombosis of lower extremity" />
        </reasonCode>

        <insurance>
          <!-- 0..* Bsp. Covid19 Kostenträger; Reference(Coverage|ClaimResponse) Associated insurance coverage -->
          <reference value="Coverage/HealthInsuranceCard" />
        </insurance>

        <!-- 2 Specimens, belong to this laborder-service -->
        <specimen>
          <reference value="Specimen/serum" />
          <display value="Serum specimen" />
        </specimen>

        <specimen>
          <!-- 0..* Reference(Specimen) Procedure Samples -->
          <reference value="Specimen/blood" />
        </specimen>

      </ServiceRequest>
    </resource>
  </entry>
</Bundle>
