<Bundle xmlns="http://hl7.org/fhir">
  <id value="2-pertussis" />
  <meta>
    <versionId value="1" />
    <lastUpdated value="2019-04-01T20:18:41.341+00:00" />
    <profile value="http://fhir.ch/ig/ch-orf/StructureDefinition/ch-orf-document" />
  </meta>
  <identifier>
    <system value="http://test.fhir.ch/id/uuid" />
    <value value="26d3dff7-ab05-4737-a49c-5eccd33595f8" />
  </identifier>
  <type value="document" />
  <timestamp value="2019-04-01T20:18:41.341+00:00" />

  <!-- #0 entry Composition-->
  <entry>
    <fullUrl value="http://test.fhir.ch/r4/Composition/2-pertussis" />
    <resource>
      <Composition xmlns="http://hl7.org/fhir">
        <id value="2-pertussis" />

        <!--
        <meta>
          <profile value="http://fhir.ch/ig/ch-orf/StructureDefinition/ch-orf-composition" />
        </meta>
        <text>
          <status value="generated" />
          <div xmlns="http://www.w3.org/1999/xhtml">
            2-pertussis
          </div>
        </text>
       
        <extension url="">
            <valueString value="" />
        </extension>
        
        <identifier>
          <system value="http://test.fhir.ch/id/uuid" />
          <value value="26d3dff7-ab05-4737-a49c-5eccd33595f7" />
        </identifier>
        -->
        <status value="final" />
        <type>
          <coding>
            <system value="http://snomed.info/sct" />
            <code value="721963009" />
          </coding>
          <text value="Order (record artifact)" />
        </type>
        <!-- Publisher says: "Keiner der angegebenen Codes ist im Valueset 
          http://hl7.org/fhir/ValueSet/doc-typecodes (http://hl7.org/fhir/ValueSet/doc-typecodes, 
          und es wird empfohlen, einen Code aus dieserm Valueset zu verwenden) 
          (Codes = http://snomed.info/sct#721963009)""
        -->
        <category>
          <coding>
            <system value="http://snomed.info/sct" />
            <code value="721965002" />
            <display value="Laboratory order (record artifact)" />
          </coding>
        </category>

        <subject>
          <reference value="Patient/EmilKummer" />
        </subject>

        <date value="2020-03-31T11:46:09+02:00" />
        <author>
          <reference value="Practitioner/PeterPresto" />
        </author>

        <title value="Referral Pertussis" />
        <attester>
          <mode value="professional" />
          <time value="2020-03-12T11:46:09+02:00" />
          <party>
            <reference value="Practitioner/PeterPresto" />
          </party>
        </attester>

        <!-- sections -->
        <section>
          <title value="Referral" />
          <entry>
            <reference value="Questionnaire/2-pertussis" />
          </entry>
          <entry>
            <reference value="QuestionnaireResponse/2-pertussis" />
          </entry>
          <entry>
            <reference value="ServiceRequest/2-pertussis" />
          </entry>
        </section>
      </Composition>
    </resource>
  </entry>

  <!-- #1 entry Patient -->
  <entry>
    <fullUrl value="http://test.fhir.ch/r4/Patient/HansGuggindieluft" />
    <resource>
      <Patient xmlns="http://hl7.org/fhir">
        <id value="EmilKummer" />
        <meta>
          <profile value="http://fhir.ch/ig/ch-core/StructureDefinition/ch-core-patient" />
        </meta>
        <!-- 
            <text>
              <status value="generated"/>
              <div xmlns="http://www.w3.org/1999/xhtml">
                <p>
                  <b>Generated Narrative with Details</b>
                </p>
                <p>
                  <b>id</b>: EmilKummer
                </p>
                <p>
                  <b>meta</b>: 
                </p>
                <p>
                  <b>identifier</b>: 012/08.111111
                </p>
                <p>
                  <b>name</b>: Franz Muster 
                </p>
                <p>
                  <b>gender</b>: MALE
                </p>
                <p>
                  <b>birthDate</b>: Mai 05, 2014
                </p>
                <p>
                  <b>maritalStatus</b>
                  <span style="background: LightGoldenRodYellow">(Details : {http://fhir.ch/ig/ch-core/CodeSystem/ech-11-maritalstatus code &#39;6&#39; = &#39;6&#39;, given as &#39;in eingetragener Partnerschaft&#39;})</span>
                </p>
                <h3>Communications</h3>
                <table class="grid">
                  <tr>
                    <td>-</td>
                    <td>
                      <b>Language</b>
                    </td>
                    <td>
                      <b>Preferred</b>
                    </td>
                  </tr>
                  <tr>
                    <td>*</td>
                    <td>Deutsch (Schweiz) 
                      <span style="background: LightGoldenRodYellow">(Details : {urn:ietf:bcp:47 code &#39;de-CH&#39; = &#39;German (Region=Switzerland))</span>
                    </td>
                    <td>true</td>
                  </tr>
                </table>
              </div>
            </text>
            -->
        <extension url="http://hl7.org/fhir/StructureDefinition/patient-birthPlace">
          <valueAddress>
            <city value="Ostermundigen" />
            <country value="Schweiz" />
          </valueAddress>
        </extension>
        <!-- 
            <extension url="http://fhir.ch/ig/ch-core/StructureDefinition/ch-core-patient-ech-11-placeoforigin">
              <valueAddress>
                <city value="Köniz"/>
                <state value="BE"/>
              </valueAddress>
            </extension>
            <extension url="http://fhir.ch/ig/ch-core/StructureDefinition/ch-core-patient-religion">
              <valueCodeableConcept>
                <coding>
                  <system value="http://fhir.ch/ig/ch-core/CodeSystem/ech-11-religion"/>
                  <code value="111"/>
                  <display value="evangelisch-reformierte (protestantische) Kirche"/>
                </coding>
                <coding>
                  <system value="http://terminology.hl7.org/CodeSystem/v3-ReligiousAffiliation"/>
                  <code value="1077"/>
                  <display value="Protestant"/>
                </coding>
              </valueCodeableConcept>
            </extension>
            -->
        <identifier>
          <system value="urn:oid:2.16.756.5.30.999999.1" />
          <value value="012/08.111111" />
        </identifier>
        <name>
          <family value="Kummer" />
          <given value="Emil" />
        </name>
        <gender value="male" />
        <birthDate value="2020-05-05" />
        <maritalStatus>
          <coding>
            <system value="http://fhir.ch/ig/ch-core/CodeSystem/ech-11-maritalstatus" />
            <code value="" />
            <display value="" />
          </coding>
        </maritalStatus>
        <communication>
          <language>
            <coding>
              <system value="urn:ietf:bcp:47" />
              <code value="de-CH" />
            </coding>
            <text value="Deutsch (Schweiz)" />
          </language>
          <preferred value="true" />
        </communication>
      </Patient>
    </resource>
  </entry>

  <!-- #2 practitioner -->
  <entry>
    <fullUrl value="http://test.fhir.ch/r4/Practitioner/PeterPresto" />

    <resource>
      <Practitioner xmlns="http://hl7.org/fhir">
        <id value="PeterPresto" />
        <meta>
          <profile value="http://fhir.ch/ig/ch-core/StructureDefinition/ch-core-practitioner-epr" />
        </meta>
        <identifier>
          <system value="urn:oid:2.51.1.3" />
          <value value="7601000050701" />
        </identifier>
        <name>
          <family value="Presto" />
          <given value="Peter" />
        </name>
      </Practitioner>
    </resource>
  </entry>

  <!-- #3 entry questionnaire -->
  <entry>
    <fullUrl value="http://test.fhir.ch/r4/Questionnaire/2-pertussis" />
    <resource>
      <Questionnaire xmlns="http://hl7.org/fhir">
        <id value="2-pertussis" />
        <meta>
          <profile value="http://fhir.ch/ig/ch-orf/StructureDefinition/ch-orf-questionnaire" />
        </meta>
        <text>
          <status value="generated" />
          <div xmlns="http://www.w3.org/1999/xhtml">
            Lab Order Questionnarie Example for blood smear and PCR
            <pre>todo copy text out of rendering</pre>
          </div>
        </text>
        <extension url="http://hl7.org/fhir/uv/sdc/StructureDefinition/sdc-questionnaire-targetStructureMap">
          <valueCanonical value="http://fhir.ch/ig/ch-orf/StructureMap/map-orf" />
        </extension>
        <url value="http://fhir.ch/ig/ch-lab-order/Questionnaire/2-pertussis" />
        <name value="LabOrderExample" />
        <title value="Lab Order Example" />
        <status value="draft" />
        <experimental value="true" />
        <subjectType value="Patient" />
        <date value="2020-08-23" />
        <publisher value="eHealth Suisse" />

        <!-- item #0 Lab Order Questionnarie Example for Pertussis -->
        <item>
          <linkId value="info" />
          <text value="Lab Order Questionnarie Example for Pertussis" />
          <type value="display" />
        </item>

        <!-- item #1 Lab Order -->
        <item>
          <linkId value="order" />
          <text value="Auftrag" />
          <type value="group" />
          <item>
            <linkId value="order.date" />
            <text value="Auftrags-Datum" />
            <type value="date" />
          </item>
          <item>
            <linkId value="order.number" />
            <text value="Auftrags-Nummer" />
            <type value="string" />
          </item>
        </item>

        <!-- item #2 orderer -->
        <item>
          <linkId value="orderer" />
          <text value="Auftraggeber" />
          <type value="group" />

          <!-- item #2.0 orderer.author -->
          <item>
            <linkId value="orderer.author" />
            <text value="Author" />
            <type value="group" />
            <item>
              <linkId value="orderer.author.visum" />
              <text value="Visum" />
              <type value="string" />
            </item>
            <item>
              <linkId value="orderer.author.organization" />
              <text value="Organization" />
              <type value="string" />
            </item>
            <item>
              <linkId value="orderer.author.lastname" />
              <text value="Name" />
              <type value="string" />
            </item>
            <item>
              <linkId value="orderer.author.firstname" />
              <text value="Vorname" />
              <type value="string" />
            </item>
            <item>
              <linkId value="orderer.author.tel" />
              <text value="Telefon" />
              <type value="string" />
            </item>
            <item>
              <linkId value="orderer.author.e-mail" />
              <text value="E-Mail" />
              <type value="string" />
            </item>
            <item>
              <linkId value="orderer.author.street" />
              <text value="Strasse" />
              <type value="string" />
            </item>
            <item>
              <linkId value="orderer.author.postfach" />
              <text value="Postfach" />
              <type value="string" />
            </item>
            <item>
              <linkId value="orderer.author.zip" />
              <text value="PLZ" />
              <type value="string" />
            </item>
            <item>
              <linkId value="orderer.author.city" />
              <text value="Ort" />
              <type value="string" />
            </item>
          </item>

          <!-- orderer.dataenterer-->
          <item>
            <linkId value="orderer.dataenterer" />
            <text value="Erfasser" />
            <type value="group" />
            <item>
              <linkId value="orderer.dataenterer.visum" />
              <text value="Visum" />
              <type value="string" />
            </item>
            <item>
              <linkId value="orderer.dataenterer.organization" />
              <text value="Organization" />
              <type value="string" />
            </item>
            <item>
              <linkId value="orderer.dataenterer.lastname" />
              <code>
                <system value="http://tbd" />
                <code value="datlname" />
              </code>
              <text value="Name" />
              <type value="string" />
            </item>
            <item>
              <linkId value="orderer.dataenterer.firstname" />
              <definition value="http://fhir.ch/ig/ch-orf/StructureDefinition/ChOrfDataEntryPerson#Practitioner.name.first" />
              <text value="Vorname" />
              <type value="string" />
            </item>
            <item>
              <linkId value="orderer.dataenterer.tel" />
              <text value="Telefon" />
              <type value="string" />
            </item>
            <item>
              <linkId value="orderer.dataenterer.e-mail" />
              <text value="E-Mail" />
              <type value="string" />
            </item>
            <item>
              <linkId value="orderer.dataenterer.street" />
              <text value="Strasse" />
              <type value="string" />
            </item>
            <item>
              <linkId value="orderer.dataenterer.postfach" />
              <text value="Postfach" />
              <type value="string" />
            </item>
            <item>
              <linkId value="orderer.dataenterer.zip" />
              <text value="PLZ" />
              <type value="string" />
            </item>
            <item>
              <linkId value="orderer.dataenterer.city" />
              <text value="Ort" />
              <type value="string" />
            </item>
          </item>

          <!-- orderer.notcontactthisdoc -->
          <item>
            <linkId value="orderer.notcontactthisdoc" />
            <text value="Urgent Notification Contact for this document:" />
            <type value="group" />
            <item>
              <linkId value="orderer.notifcontactthisdoc.visum" />
              <text value="Visum" />
              <type value="string" />
            </item>
            <item>
              <linkId value="orderer.notifcontactthisdoc.organization" />
              <text value="Organization" />
              <type value="string" />
            </item>
            <item>
              <linkId value="orderer.notifcontactthisdoc.lastname" />
              <text value="Name" />
              <type value="string" />
            </item>
            <item>
              <linkId value="orderer.notifcontactthisdoc.firstname" />
              <text value="Vorname" />
              <type value="string" />
            </item>
            <item>
              <linkId value="orderer.notifcontactthisdoc.tel" />
              <text value="Telefon" />
              <type value="string" />
            </item>
            <item>
              <linkId value="orderer.notifcontactthisdoc.e-mail" />
              <text value="E-Mail" />
              <type value="string" />
            </item>
            <item>
              <linkId value="orderer.notifcontactthisdoc.street" />
              <text value="Strasse" />
              <type value="string" />
            </item>
            <item>
              <linkId value="orderer.notifcontactthisdoc.postfach" />
              <text value="Postfach" />
              <type value="string" />
            </item>
            <item>
              <linkId value="orderer.notifcontactthisdoc.zip" />
              <text value="PLZ" />
              <type value="string" />
            </item>
            <item>
              <linkId value="orderer.notifcontactthisdoc.city" />
              <text value="Ort" />
              <type value="string" />
            </item>
          </item>

          <!-- orderer.notcontactresponsedoc -->
          <item>
            <linkId value="orderer.notcontactresponsedoc" />
            <text value="Urgent Notification Contact for the response of this document:" />
            <type value="group" />
            <item>
              <linkId value="orderer.notifcontactresponsedoc.visum" />
              <text value="Visum" />
              <type value="string" />
            </item>
            <item>
              <linkId value="orderer.notifcontactresponsedoc.organization" />
              <text value="Organization" />
              <type value="string" />
            </item>
            <item>
              <linkId value="orderer.notifcontactresponsedoc.lastname" />
              <text value="Name" />
              <type value="string" />
            </item>
            <item>
              <linkId value="orderer.notifcontactresponsedoc.firstname" />
              <text value="Vorname" />
              <type value="string" />
            </item>
            <item>
              <linkId value="orderer.notifcontactresponsedoc.tel" />
              <text value="Telefon" />
              <type value="string" />
            </item>
            <item>
              <linkId value="orderer.notifcontactresponsedoc.e-mail" />
              <text value="E-Mail" />
              <type value="string" />
            </item>
            <item>
              <linkId value="orderer.notifcontactresponsedoc.street" />
              <text value="Strasse" />
              <type value="string" />
            </item>
            <item>
              <linkId value="orderer.notifcontactresponsedoc.postfach" />
              <text value="Postfach" />
              <type value="string" />
            </item>
            <item>
              <linkId value="orderer.notifcontactresponsedoc.zip" />
              <text value="PLZ" />
              <type value="string" />
            </item>
            <item>
              <linkId value="orderer.notifcontactresponsedoc.city" />
              <text value="Ort" />
              <type value="string" />
            </item>
          </item>
        </item>

        <!-- item #3 receiver -->
        <item>
          <linkId value="receiver" />
          <text value="Receiver" />
          <type value="group" />
          <item>
            <linkId value="receiver.visum" />
            <text value="Visum" />
            <type value="string" />
          </item>
          <item>
            <linkId value="receiver.bereich" />
            <text value="Bereich" />
            <type value="string" />
          </item>
          <item>
            <linkId value="receiver.abt" />
            <text value="Bereich" />
            <type value="string" />
          </item>
          <item>
            <linkId value="receiver.lastname" />
            <text value="Name" />
            <type value="string" />
          </item>
          <item>
            <linkId value="receiver.firstname" />
            <text value="Vorname" />
            <type value="string" />
          </item>
          <item>
            <linkId value="receiver.tel" />
            <text value="Telefon" />
            <type value="string" />
          </item>
          <item>
            <linkId value="receiver.e-mail" />
            <text value="E-Mail" />
            <type value="string" />
          </item>
          <item>
            <linkId value="receiver.cstreet" />
            <text value="Strasse" />
            <type value="string" />
          </item>
          <item>
            <linkId value="receiver.postfach" />
            <text value="Postfach" />
            <type value="string" />
          </item>
          <item>
            <linkId value="receiver.zip" />
            <text value="PLZ" />
            <type value="string" />
          </item>
          <item>
            <linkId value="receiver.city" />
            <text value="Ort" />
            <type value="string" />
          </item>
        </item>

        <!-- item #4 patient-->
        <item>
          <linkId value="patient" />
          <text value="Patient" />
          <type value="group" />
          <item>
            <linkId value="patient.lastname" />
            <definition value="http://hl7.org/fhir/StructureDefinition/Patient#Patient.name.given" />
            <text value="Name" />
            <type value="string" />
          </item>
          <item>
            <linkId value="patient.firstname" />
            <definition value="http://hl7.org/fhir/StructureDefinition/Patient#Patient.name.first" />
            <text value="Vorname" />
            <type value="string" />
          </item>
          <item>
            <linkId value="patient.pid" />
            <text value="PID (sendendes System)" />
            <type value="string" />
          </item>
          <item>
            <linkId value="patient.birthdate" />
            <text value="Geburtsdatum" />
            <type value="date" />
          </item>
          <item>
            <linkId value="patient.sex" />
            <text value="Geschlecht" />
            <type value="choice" />
            <answerOption>
              <valueString value="M" />
            </answerOption>
            <answerOption>
              <valueString value="F" />
            </answerOption>
          </item>
          <item>
            <linkId value="patient.amborstat" />
            <text value="Amb/Stat" />
            <type value="choice" />
            <answerOption>
              <valueString value="Amb" />
            </answerOption>
            <answerOption>
              <valueString value="Stat" />
            </answerOption>
          </item>
        </item>

        <!-- item #5 specialty, here: microbiology-->
        <item>
          <linkId value="microbiology" />
          <text value="Mikrobiologie" />
          <type value="group" />

          <!-- item #5.0 PCR for Pertussis/Parapertussis-->
          <item>
            <linkId value="per" />
            <text value="Pertussis and Parapertussis DNA" />
            <type value="choice" />
            <repeats value="true" />
            <answerOption>
              <valueCoding>
                <system value="http://loinc.org" />
                <code value="90441-7" />
                <display value="B pert+parapert DNA Pnl Nph" />
              </valueCoding>
            </answerOption>
          </item>
        </item>

        <!-- item #6 specialty, here: hematology-->
        <item>
          <linkId value="hematology" />
          <text value="Hämatologie" />
          <type value="group" />

          <!-- item #6.0 -->
          <item>
            <linkId value="blood-diff" />
            <text value="Manual Differential panel - Blood" />
            <type value="choice" />
            <repeats value="true" />
            <answerOption>
              <valueCoding>
                <system value="http://loinc.org" />
                <code value="24318-8" />
                <display value="Manual diff Bld" />
              </valueCoding>
            </answerOption>
          </item>
        </item>

        <!-- item #7 specialty, here: clinical chemistry-->
        <item>
          <linkId value="clinical chemistry" />
          <text value="Klinische Chemie" />
          <type value="group" />
          <!-- CRP C reactive Protein normal method -->
          <item>
            <linkId value="crp" />
            <text value="C-reactive Protein" />
            <type value="choice" />
            <repeats value="true" />
            <answerOption>
              <valueCoding>
                <system value="http://loinc.org" />
                <code value="1988-5" />
                <display value="C reactive protein [Mass/volume] in Serum or Plasma" />
              </valueCoding>
            </answerOption>
          </item>

        </item>
      </Questionnaire>
    </resource>
  </entry>

  <!-- #4 entry questionnaireResponse -->
  <entry>
    <fullUrl value="http://test.fhir.ch/r4/QuestionnaireResponse/2-pertussis" />
    <resource>
      <QuestionnaireResponse xmlns="http://hl7.org/fhir">
        <id value="2-pertussis" />
        <meta>
          <versionId value="1" />
          <lastUpdated value="2019-04-01T20:17:53.340+00:00" />
          <profile value="http://fhir.ch/ig/ch-orf/StructureDefinition/ch-orf-questionnaireresponse" />
        </meta>
        <text>
          <status value="generated" />
          <div xmlns="http://www.w3.org/1999/xhtml">
            Lab Order Questionnarie Response Example for a Chemogram
            <pre>todo copy text out of rendering</pre>
          </div>
        </text>

        <questionnaire value="http://fhir.ch/ig/ch-lab-order/Questionnaire/2-pertussis" />
        <status value="completed" />

        <!-- item #0 Lab Order Questionnaire Example for Pertussis -->
        <item>
          <linkId value="info" />
          <text value="Lab Order Questionnaire Example for Pertussis" />
        </item>

        <!-- item #1 Lab Order -->
        <item>
          <linkId value="order" />
          <text value="Auftrag" />
          <item>
            <linkId value="order.date" />
            <text value="Auftrags-Datum" />
            <answer>
              <valueDate value="2020-08-23" />
            </answer>
          </item>
          <item>
            <linkId value="order.number" />
            <text value="Auftrags-Nummer" />
            <answer>
              <valueString value="12302" />
            </answer>
          </item>
        </item>

        <!-- item #2 orderer -->
        <item>
          <linkId value="orderer" />
          <text value="Auftraggeber" />


          <!-- item #2.0 orderer.author -->
          <item>
            <linkId value="orderer.author" />
            <text value="Author" />

            <item>
              <linkId value="orderer.author.visum" />
              <text value="Visum" />

            </item>
            <item>
              <linkId value="orderer.author.organization" />
              <text value="Organization" />

            </item>
            <item>
              <linkId value="orderer.author.lastname" />
              <text value="Name" />

            </item>
            <item>
              <linkId value="orderer.author.firstname" />
              <text value="Vorname" />

            </item>
            <item>
              <linkId value="orderer.author.tel" />
              <text value="Telefon" />

            </item>
            <item>
              <linkId value="orderer.author.e-mail" />
              <text value="E-Mail" />

            </item>
            <item>
              <linkId value="orderer.author.street" />
              <text value="Strasse" />

            </item>
            <item>
              <linkId value="orderer.author.postfach" />
              <text value="Postfach" />

            </item>
            <item>
              <linkId value="orderer.author.zip" />
              <text value="PLZ" />

            </item>
            <item>
              <linkId value="orderer.author.city" />
              <text value="Ort" />

            </item>
          </item>

          <!-- orderer.dataenterer-->
          <item>
            <linkId value="orderer.dataenterer" />
            <text value="Erfasser" />

            <item>
              <linkId value="orderer.dataenterer.visum" />
              <text value="Visum" />

            </item>
            <item>
              <linkId value="orderer.dataenterer.organization" />
              <text value="Organization" />

            </item>
            <item>
              <linkId value="orderer.dataenterer.lastname" />
              <text value="Name" />
              <answer>
                <valueString value="Mustermann" />
                <!-- 
                <valueCoding>
                  <system value="http://tbd" />
                  <code value="datlname" />
                </valueCoding>
                -->
              </answer>

            </item>
            <item>
              <linkId value="orderer.dataenterer.firstname" />
              <text value="Vorname" />

            </item>
            <item>
              <linkId value="orderer.dataenterer.tel" />
              <text value="Telefon" />

            </item>
            <item>
              <linkId value="orderer.dataenterer.e-mail" />
              <text value="E-Mail" />

            </item>
            <item>
              <linkId value="orderer.dataenterer.street" />
              <text value="Strasse" />

            </item>
            <item>
              <linkId value="orderer.dataenterer.postfach" />
              <text value="Postfach" />

            </item>
            <item>
              <linkId value="orderer.dataenterer.zip" />
              <text value="PLZ" />

            </item>
            <item>
              <linkId value="orderer.dataenterer.city" />
              <text value="Ort" />

            </item>
          </item>

          <!-- orderer.notcontactthisdoc -->
          <item>
            <linkId value="orderer.notcontactthisdoc" />
            <text value="Urgent Notification Contact for this document:" />

            <item>
              <linkId value="orderer.notifcontactthisdoc.visum" />
              <text value="Visum" />

            </item>
            <item>
              <linkId value="orderer.notifcontactthisdoc.organization" />
              <text value="Organization" />

            </item>
            <item>
              <linkId value="orderer.notifcontactthisdoc.lastname" />
              <text value="Name" />

            </item>
            <item>
              <linkId value="orderer.notifcontactthisdoc.firstname" />
              <text value="Vorname" />

            </item>
            <item>
              <linkId value="orderer.notifcontactthisdoc.tel" />
              <text value="Telefon" />

            </item>
            <item>
              <linkId value="orderer.notifcontactthisdoc.e-mail" />
              <text value="E-Mail" />

            </item>
            <item>
              <linkId value="orderer.notifcontactthisdoc.street" />
              <text value="Strasse" />

            </item>
            <item>
              <linkId value="orderer.notifcontactthisdoc.postfach" />
              <text value="Postfach" />

            </item>
            <item>
              <linkId value="orderer.notifcontactthisdoc.zip" />
              <text value="PLZ" />

            </item>
            <item>
              <linkId value="orderer.notifcontactthisdoc.city" />
              <text value="Ort" />

            </item>
          </item>

          <!-- orderer.notcontactresponsedoc -->
          <item>
            <linkId value="orderer.notcontactresponsedoc" />
            <text value="Urgent Notification Contact for the response of this document:" />

            <item>
              <linkId value="orderer.notifcontactresponsedoc.visum" />
              <text value="Visum" />

            </item>
            <item>
              <linkId value="orderer.notifcontactresponsedoc.organization" />
              <text value="Organization" />

            </item>
            <item>
              <linkId value="orderer.notifcontactresponsedoc.lastname" />
              <text value="Name" />

            </item>
            <item>
              <linkId value="orderer.notifcontactresponsedoc.firstname" />
              <text value="Vorname" />

            </item>
            <item>
              <linkId value="orderer.notifcontactresponsedoc.tel" />
              <text value="Telefon" />

            </item>
            <item>
              <linkId value="orderer.notifcontactresponsedoc.e-mail" />
              <text value="E-Mail" />

            </item>
            <item>
              <linkId value="orderer.notifcontactresponsedoc.street" />
              <text value="Strasse" />

            </item>
            <item>
              <linkId value="orderer.notifcontactresponsedoc.postfach" />
              <text value="Postfach" />

            </item>
            <item>
              <linkId value="orderer.notifcontactresponsedoc.zip" />
              <text value="PLZ" />

            </item>
            <item>
              <linkId value="orderer.notifcontactresponsedoc.city" />
              <text value="Ort" />

            </item>
          </item>
        </item>

        <!-- item #3 receiver -->
        <item>
          <linkId value="receiver" />
          <text value="Receiver" />

          <item>
            <linkId value="receiver.visum" />
            <text value="Visum" />

          </item>
          <item>
            <linkId value="receiver.bereich" />
            <text value="Bereich" />

          </item>
          <item>
            <linkId value="receiver.abt" />
            <text value="Bereich" />

          </item>
          <item>
            <linkId value="receiver.lastname" />
            <text value="Name" />

          </item>
          <item>
            <linkId value="receiver.firstname" />
            <text value="Vorname" />

          </item>
          <item>
            <linkId value="receiver.tel" />
            <text value="Telefon" />

          </item>
          <item>
            <linkId value="receiver.e-mail" />
            <text value="E-Mail" />

          </item>
          <item>
            <linkId value="receiver.cstreet" />
            <text value="Strasse" />

          </item>
          <item>
            <linkId value="receiver.postfach" />
            <text value="Postfach" />

          </item>
          <item>
            <linkId value="receiver.zip" />
            <text value="PLZ" />

          </item>
          <item>
            <linkId value="receiver.city" />
            <text value="Ort" />

          </item>
        </item>

        <!-- #4 patient -->
        <item>
          <linkId value="patient" />
          <text value="Patient" />
          <item>
            <linkId value="patient.lastname" />
            <text value="Name" />
            <answer>
              <valueString value="Kummer" />
            </answer>
          </item>
          <item>
            <linkId value="patient.firstname" />
            <text value="Vorname" />
            <answer>
              <valueString value="Emil" />
            </answer>
          </item>
          <item>
            <linkId value="patient.pid" />
            <text value="PID (sendendes System)" />
            <answer>
              <valueString value="012/08.111103" />
            </answer>
          </item>
          <item>
            <linkId value="patient.birthdate" />
            <text value="Geburtsdatum" />
            <answer>
              <valueDate value="2014-05-05" />
            </answer>
          </item>
          <item>
            <linkId value="patient.sex" />
            <text value="Geschlecht" />
            <answer>
              <valueString value="M" />
            </answer>
          </item>
        </item>

        <!-- item #5 specialty, here: microbiology -->
        <item>
          <linkId value="microbiology" />
          <text value="Mikrobiologie" />

          <!-- item #5.0 -->
          <item>
            <linkId value="per" />
            <text value="Pertussis and Parapertussis DNA" />
            <answer>
              <valueCoding>
                <system value="http://loinc.org" />
                <code value="90441-7" />
                <display value="B pert+parapert DNA Pnl Nph" />
              </valueCoding>
            </answer>
          </item>
        </item>

        <!-- item #6 specialty, here: hematology-->
        <item>
          <linkId value="hematology" />
          <text value="Hämatologie" />
          <item>
            <linkId value="blood-diff" />
            <text value="Manual Differential panel - Blood" />
            <answer>
              <valueCoding>
                <system value="http://loinc.org" />
                <code value="24318-8" />
                <display value="Manual diff Bld" />
              </valueCoding>
            </answer>
          </item>
        </item>

        <!-- item #7 specialty, here: clinical chemistry-->
        <item>
          <linkId value="clinical chemistry" />
          <text value="Klinische Chemie" />
          <!-- CRP C reactive Protein normal method -->
          <item>
            <linkId value="crp" />
            <text value="C-reactive Protein" />
            <answer>
              <valueCoding>
                <system value="http://loinc.org" />
                <code value="1988-5" />
                <display value="C reactive protein [Mass/volume] in Serum or Plasma" />
              </valueCoding>
            </answer>
          </item>
        </item>

      </QuestionnaireResponse>
    </resource>
  </entry>

  <!-- #5 entry serviceRequest -->
  <entry>
    <fullUrl value="http://test.fhir.ch/r4/ServiceRequest/2-pertussis" />
    <resource>
      <ServiceRequest xmlns="http://hl7.org/fhir">
        <id value="2-pertussis" />

        <!-- 
        <meta>
          <profile value="http://fhir.ch/ig/ch-orf/StructureDefinition/ch-orf-servicerequest" />
        </meta>
        -->
        <!-- 0..1 Identifiers assigned to this order instance by the orderer and/or the receiver and/or order fulfiller. TODO -->

        <!-- should be mandatory ?
        <identifier>
        </identifier>
        -->
        <status value="active" />
        <intent value="original-order" />
        <category>
          <!-- 0..* Classification of service, Service Request Category Codes (Example) -->
          <coding>
            <system value="http://snomed.info/sct" />
            <code value="108252007" />
          </coding>
          <text value="Laboratory procedure (procedure)" />
        </category>
        <priority value="urgent" /> <!-- 0..1 routine | urgent | asap | stat -->

        <subject>
          <reference value="Patient/EmilKummer" />
        </subject>
        <requester>
          <reference value="Practitioner/PeterPresto" />
        </requester>

        <performerType>
          <!-- 0..1 CodeableConcept Performer role -->
          <coding>
            <system value="http://snomed.info/sct" />
            <code value="61246008" />
          </coding>
          <text value="Laboratory medicine specialist (occupation)" />
        </performerType>

        <performer>
          <!-- 0..* Reference(Practitioner|PractitionerRole|Organization|
          CareTeam|HealthcareService|Patient|Device|RelatedPerson) Requested performer -->
          <reference value="Organization/LaborPipette" />
        </performer>

        <reasonCode>
          <!-- 0..* CodeableConcept Explanation/Justification for procedure or service -->
          <coding>
            <system value="http://snomed.info/sct" />
            <code value="772146005" />
          </coding>
          <text value="Pertussis suspected (situation)" />
        </reasonCode>

        <!-- 3 Specimens, belong to this laborder-servicerequest -->
        <specimen>
          <!-- 0..* Reference(Specimen) Procedure Samples -->
          <reference value="Specimen/throat-swab" />
        </specimen>

        <specimen>
          <!-- 0..* Reference(Specimen) Procedure Samples -->
          <reference value="Specimen/blood" />
        </specimen>

        <specimen>
          <!-- 0..* Reference(Specimen) Procedure Samples -->
          <reference value="Specimen/serum" />
        </specimen>
      </ServiceRequest>
    </resource>
  </entry>
</Bundle>