<Bundle xmlns="http://hl7.org/fhir">
  <id value="3-gyn" />
  <meta>
    <versionId value="1" />
    <lastUpdated value="2019-04-01T20:18:41.341+00:00" />
    <profile value="http://fhir.ch/ig/ch-orf/StructureDefinition/ch-orf-document" />
  </meta>
  <identifier>
    <system value="http://test.fhir.ch/id/uuid" />
    <value value="26d3dff7-ab05-4737-a49c-5eccd33595f8" />
  </identifier>
  <type value="document" />
  <timestamp value="2019-04-01T20:18:41.341+00:00" />

  <!-- entry[0] Composistion-->
  <entry>
    <fullUrl value="http://example.com/fhir/Composition/3-gyn" />
    <resource>
      <Composition xmlns="http://hl7.org/fhir">
        <id value="3-gyn" />
        <meta>
          <profile value="http://fhir.ch/ig/ch-orf/StructureDefinition/ch-orf-composition" />
        </meta>
        <text>
          <status value="generated" />
          <div xmlns="http://www.w3.org/1999/xhtml">
                Referral 3-gyn
            </div>
        </text>
      
        <extension url="http://fhir.ch/ig/ch-orf/StructureDefinition/ch-orf-visitnumber">
          <valueIdentifier>
            <value value="123" />
          </valueIdentifier>
        </extension>
      
        <identifier>
          <system value="http://test.fhir.ch/id/uuid" />
          <value value="26d3dff7-ab05-4737-a49c-5eccd33595f7" />
        </identifier>
        <status value="final" />
      
        <type>
          <coding>
            <system value="http://snomed.info/sct" />
            <code value="721965002" />
            <display value="Laboratory order (record artifact)" />
          </coding>
        </type>
      
        <category>
          <coding>
            <system value="http://snomed.info/sct" />
            <code value="721963009" />
            <display value="Order (record artifact)" />
          </coding>
        </category>
      
        <subject>
          <reference value="Patient/MarinaRubella" />
        </subject>
        <date value="2020-03-31T11:46:09+02:00" />
      
        <author>
          <reference value="Practitioner/PeterPap" />
        </author>
        <title value="Referral 3-gyn" />
      
        <attester>
          <mode value="professional" />
          <time value="2010-03-12T11:46:09+02:00" />
          <party>
            <reference value="Practitioner/PeterPap" />
          </party>
        </attester>
      
        <!-- sections -->
        <section>
          <title value="Referral" />
          <text>
            <status value="generated" />
            <div xmlns="http://www.w3.org/1999/xhtml">
              Referral 3-gyn
            </div>
          </text>
          <entry>
            <reference value="Questionnaire/3-gyn" />
          </entry>
          <entry>
            <reference value="QuestionnaireResponse/3-gyn" />
          </entry>
          <entry>
            <reference value="ServiceRequest/3-gyn" />
          </entry>
        </section>
      </Composition>
    </resource>
  </entry>

  <!-- entry[1] ch-core-Patient -->
  <entry>
    <fullUrl value="http://example.com/fhir/Patient/MarinaRubella" />
    <resource>
      <Patient xmlns="http://hl7.org/fhir">
        <id value="HansGuggindieluft" />
        <meta>
          <profile value="http://fhir.ch/ig/ch-core/StructureDefinition/ch-core-patient" />
        </meta>

        <extension url="http://hl7.org/fhir/StructureDefinition/patient-birthPlace">
          <valueAddress>
            <city value="Zürich" />
            <country value="Schweiz" />
          </valueAddress>
        </extension>
        <extension url="http://fhir.ch/ig/ch-core/StructureDefinition/ch-core-patient-ech-11-placeoforigin">
          <valueAddress>
            <city value="Breitenbach" />
            <state value="BL" />
          </valueAddress>
        </extension>
        <extension url="http://hl7.org/fhir/StructureDefinition/patient-religion">
          <valueCodeableConcept>
            <coding>
              <system value="http://terminology.hl7.org/CodeSystem/v3-ReligiousAffiliation" />
              <code value="1007" />
              <display value="Atheism" />
            </coding>
          </valueCodeableConcept>
        </extension>

        <identifier>
          <type>
            <coding>
              <system value="http://terminology.hl7.org/CodeSystem/v2-0203" />
              <code value="MR" /> <!-- Medical Record Number-->
            </coding>
          </type>
          <system value="urn:oid:2.16.756.5.30.999999.1" />
          <value value="012/08.111104" />
        </identifier>

        <name>
          <family value="Guggindieluft" />
          <given value="Hans" />
        </name>
        <gender value="male" />
        <birthDate value="1981-01-01" />
        <maritalStatus>
          <coding>
            <system value="http://fhir.ch/ig/ch-core/CodeSystem/ech-11-maritalstatus" />
            <code value="5" />
            <display value="unverheiratet" />
          </coding>
        </maritalStatus>
        <communication>
          <language>
            <coding>
              <system value="urn:ietf:bcp:47" />
              <code value="de-CH" />
            </coding>
            <text value="Deutsch (Schweiz)" />
          </language>
          <preferred value="true" />
        </communication>
      </Patient>
    </resource>
  </entry>

  <!--  entry[2] practitioner -->
  <entry>
    <fullUrl value="http://example.com/fhir/Practitioner/PeterPap" />
    <resource>
      <Practitioner xmlns="http://hl7.org/fhir">
        <id value="MarcApgar" />
        <meta>
          <profile value="http://fhir.ch/ig/ch-core/StructureDefinition/ch-core-practitioner" />
        </meta>
        <identifier>
          <system value="urn:oid:2.51.1.3" />
          <value value="7601000050717" />
        </identifier>
        <name>
          <family value="Agpar" />
          <given value="Marc" />
        </name>
        <telecom>
          <system value="email" />
          <value value="marc.apgar@spitalseeblick.ch" />
          <use value="work" />
        </telecom>
      </Practitioner>
    </resource>
  </entry>

  <!-- TODO entry[] organisation -->

  <!-- entry[3] questionnaire -->
  <entry>
    <fullUrl value="http://example.com/fhir/Questionnaire/3-gyn" />
    <resource>
      <Questionnaire xmlns="http://hl7.org/fhir">
        <id value="3-gyn" />
        <meta>
          <versionId value="1" />
          <lastUpdated value="2019-04-01T20:17:53.340+00:00" />
          <profile value="http://fhir.ch/ig/ch-orf/StructureDefinition/ch-orf-questionnaire" />
        </meta>
        <text>
          <status value="generated" />
          <div xmlns="http://www.w3.org/1999/xhtml">
            Lab Order Questionnaire Example for preventive gynecologic screening
            <pre>todo copy text out of rendering</pre>
          </div>
        </text>
        
        <extension url="http://hl7.org/fhir/uv/sdc/StructureDefinition/sdc-questionnaire-targetStructureMap">
          <valueCanonical value="http://fhir.ch/ig/ch-orf/StructureMap/map-orf" />
        </extension>
        <url value="http://fhir.ch/ig/ch-lab-order/Questionnaire/3-gyn" />
        <name value="LabOrderExample" />
        <title value="Lab Order Example" />
        <status value="draft" />
        <experimental value="true" />
        <subjectType value="Patient" />
        <date value="2018-04-12" />
        <publisher value="eHealth Suisse" />
      
        <!-- item[0] Lab Order Questionnarie Example for preventive gynecologic screening -->
        <item>
          <linkId value="info" />
          <text value="Lab Order Questionnarie Example for preventive gynecologic screening" />
          <type value="display" />
        </item>
      
        <!-- item[1] order -->
        <item>
          <linkId value="order" />
          <text value="Auftrag" />
          <type value="group" />
          <item>
            <linkId value="order.date" />
            <text value="Auftrags-Datum" />
            <type value="date" />
          </item>
          <item>
            <linkId value="order.number" />
            <text value="Auftrags-Nummer" />
            <type value="string" />
          </item>
        </item>
      
        <!-- item[2] orderer-->
        <item>
          <linkId value="orderer" />
          <text value="Auftraggeber" />
          <type value="group" />
      
          <!-- item[2.0] orderer.author-->
          <item>
            <linkId value="orderer.author" />
            <text value="Author" />
            <type value="group" />
            <item>
              <linkId value="orderer.author.visum" />
              <text value="Visum" />
              <type value="string" />
            </item>
            <item>
              <linkId value="orderer.author.organization" />
              <text value="Organization" />
              <type value="string" />
            </item>
            <item>
              <linkId value="orderer.author.lastname" />
              <text value="Name" />
              <type value="string" />
            </item>
            <item>
              <linkId value="orderer.author.firstname" />
              <text value="Vorname" />
              <type value="string" />
            </item>
            <item>
              <linkId value="orderer.author.tel" />
              <text value="Telefon" />
              <type value="string" />
            </item>
            <item>
              <linkId value="orderer.author.e-mail" />
              <text value="E-Mail" />
              <type value="string" />
            </item>
            <item>
              <linkId value="orderer.author.street" />
              <text value="Strasse" />
              <type value="string" />
            </item>
            <item>
              <linkId value="orderer.author.postfach" />
              <text value="Postfach" />
              <type value="string" />
            </item>
            <item>
              <linkId value="orderer.author.zip" />
              <text value="PLZ" />
              <type value="string" />
            </item>
            <item>
              <linkId value="orderer.author.city" />
              <text value="Ort" />
              <type value="string" />
            </item>
          </item>
      
          <!-- item[2.1] orderer.dataenterer-->
          <item>
            <linkId value="orderer.dataenterer" />
            <text value="Erfasser" />
            <type value="group" />
            <item>
              <linkId value="orderer.dataenterer.visum" />
              <text value="Visum" />
              <type value="string" />
            </item>
            <item>
              <linkId value="orderer.dataenterer.organization" />
              <text value="Organization" />
              <type value="string" />
            </item>
            <item>
              <linkId value="orderer.dataenterer.lastname" />
              <text value="Name" />
              <type value="string" />
              <!-- 
              <code>
                <system value="http://tbd" />
                <code value="datlname" />
              </code>
              -->
            </item>
            <item>
              <linkId value="orderer.dataenterer.firstname"/>
              <definition value="http://fhir.ch/ig/ch-orf/StructureDefinition/QRFDataEntryPerson#Practitioner.name.first"/>
              <text value="Vorname"/>
              <type value="string"/>
          </item>
            <item>
              <linkId value="orderer.dataenterer.tel" />
              <text value="Telefon" />
              <type value="string" />
            </item>
            <item>
              <linkId value="orderer.dataenterer.e-mail" />
              <text value="E-Mail" />
              <type value="string" />
            </item>
            <item>
              <linkId value="orderer.dataenterer.street" />
              <text value="Strasse" />
              <type value="string" />
            </item>
            <item>
              <linkId value="orderer.dataenterer.postfach" />
              <text value="Postfach" />
              <type value="string" />
            </item>
            <item>
              <linkId value="orderer.dataenterer.zip" />
              <text value="PLZ" />
              <type value="string" />
            </item>
            <item>
              <linkId value="orderer.dataenterer.city" />
              <text value="Ort" />
              <type value="string" />
            </item>
          </item>
      
          <!-- item[2.2] orderer.notcontactthisdoc -->
          <item>
            <linkId value="orderer.notcontactthisdoc" />
            <text value="Urgent Notification Contact for this document:" />
            <type value="group" />
            <item>
              <linkId value="orderer.notifcontactthisdoc.visum" />
              <text value="Visum" />
              <type value="string" />
            </item>
            <item>
              <linkId value="orderer.notifcontactthisdoc.organization" />
              <text value="Organization" />
              <type value="string" />
            </item>
            <item>
              <linkId value="orderer.notifcontactthisdoc.lastname" />
              <text value="Name" />
              <type value="string" />
            </item>
            <item>
              <linkId value="orderer.notifcontactthisdoc.firstname" />
              <text value="Vorname" />
              <type value="string" />
            </item>
            <item>
              <linkId value="orderer.notifcontactthisdoc.tel" />
              <text value="Telefon" />
              <type value="string" />
            </item>
            <item>
              <linkId value="orderer.notifcontactthisdoc.e-mail" />
              <text value="E-Mail" />
              <type value="string" />
            </item>
            <item>
              <linkId value="orderer.notifcontactthisdoc.street" />
              <text value="Strasse" />
              <type value="string" />
            </item>
            <item>
              <linkId value="orderer.notifcontactthisdoc.postfach" />
              <text value="Postfach" />
              <type value="string" />
            </item>
            <item>
              <linkId value="orderer.notifcontactthisdoc.zip" />
              <text value="PLZ" />
              <type value="string" />
            </item>
            <item>
              <linkId value="orderer.notifcontactthisdoc.city" />
              <text value="Ort" />
              <type value="string" />
            </item>
          </item>
      
          <!-- item[2.3] orderer.notcontactresponsedoc -->
          <item>
            <linkId value="orderer.notcontactresponsedoc" />
            <text value="Urgent Notification Contact for the response of this document:" />
            <type value="group" />
            <item>
              <linkId value="orderer.notifcontactresponsedoc.visum" />
              <text value="Visum" />
              <type value="string" />
            </item>
            <item>
              <linkId value="orderer.notifcontactresponsedoc.organization" />
              <text value="Organization" />
              <type value="string" />
            </item>
            <item>
              <linkId value="orderer.notifcontactresponsedoc.lastname" />
              <text value="Name" />
              <type value="string" />
            </item>
            <item>
              <linkId value="orderer.notifcontactresponsedoc.firstname" />
              <text value="Vorname" />
              <type value="string" />
            </item>
            <item>
              <linkId value="orderer.notifcontactresponsedoc.tel" />
              <text value="Telefon" />
              <type value="string" />
            </item>
            <item>
              <linkId value="orderer.notifcontactresponsedoc.e-mail" />
              <text value="E-Mail" />
              <type value="string" />
            </item>
            <item>
              <linkId value="orderer.notifcontactresponsedoc.street" />
              <text value="Strasse" />
              <type value="string" />
            </item>
            <item>
              <linkId value="orderer.notifcontactresponsedoc.postfach" />
              <text value="Postfach" />
              <type value="string" />
            </item>
            <item>
              <linkId value="orderer.notifcontactresponsedoc.zip" />
              <text value="PLZ" />
              <type value="string" />
            </item>
            <item>
              <linkId value="orderer.notifcontactresponsedoc.city" />
              <text value="Ort" />
              <type value="string" />
            </item>
          </item>
        </item>
      
        <!-- item[3] receiver-->
        <item>
          <linkId value="receiver" />
          <text value="Receiver" />
          <type value="group" />
          <item>
            <linkId value="receiver.visum" />
            <text value="Visum" />
            <type value="string" />
          </item>
          <item>
            <linkId value="receiver.bereich" />
            <text value="Bereich" />
            <type value="string" />
          </item>
          <item>
            <linkId value="receiver.abt" />
            <text value="Bereich" />
            <type value="string" />
          </item>
          <item>
            <linkId value="receiver.lastname" />
            <text value="Name" />
            <type value="string" />
          </item>
          <item>
            <linkId value="receiver.firstname" />
            <text value="Vorname" />
            <type value="string" />
          </item>
          <item>
            <linkId value="receiver.tel" />
            <text value="Telefon" />
            <type value="string" />
          </item>
          <item>
            <linkId value="receiver.e-mail" />
            <text value="E-Mail" />
            <type value="string" />
          </item>
          <item>
            <linkId value="receiver.cstreet" />
            <text value="Strasse" />
            <type value="string" />
          </item>
          <item>
            <linkId value="receiver.postfach" />
            <text value="Postfach" />
            <type value="string" />
          </item>
          <item>
            <linkId value="receiver.zip" />
            <text value="PLZ" />
            <type value="string" />
          </item>
          <item>
            <linkId value="receiver.city" />
            <text value="Ort" />
            <type value="string" />
          </item>
        </item>
      
        <!-- item[4] patient-->
        <item>
          <linkId value="patient" />
          <text value="Patient" />
          <type value="group" />
          <item>
            <linkId value="patient.lastname" />
            <definition value="http://hl7.org/fhir/StructureDefinition/Patient#Patient.name.given" />
            <text value="Name" />
            <type value="string" />
          </item>
          <item>
            <linkId value="patient.firstname" />
            <definition value="http://hl7.org/fhir/StructureDefinition/Patient#Patient.name.first" />
            <text value="Vorname" />
            <type value="string" />
          </item>
          <item>
            <linkId value="patient.pid" />
            <text value="PID (sendendes System)" />
            <type value="string" />
          </item>
          <item>
            <linkId value="patient.birthdate" />
            <text value="Geburtsdatum" />
            <type value="date" />
          </item>
          <item>
            <linkId value="patient.sex" />
            <text value="Geschlecht" />
            <type value="choice" />
            <answerOption>
              <valueString value="M" />
            </answerOption>
            <answerOption>
              <valueString value="F" />
            </answerOption>
          </item>
          <item>
            <linkId value="patient.amborstat" />
            <text value="Amb/Stat" />
            <type value="choice" />
            <answerOption>
              <valueString value="Amb" />
            </answerOption>
            <answerOption>
              <valueString value="Stat" />
            </answerOption>
          </item>
        </item>
      
        <!-- item[5] lab specialty, here: Cytology and Microbiology-->
        <item>
          <linkId value="cytology" />
          <text value="Cytology and Microbiology" />
          <type value="group" />
          <item>
            <linkId value="cervicalSmear" />
            <text value="Cervical Smear" />
            <type value="choice" />
            <repeats value="true" />
      
            <answerOption>
              <valueCoding>
                <system value="http://loinc.org" />
                <code value="86662-4" />
                <display value="Pap smear tests - FPAR 2.0 set" />
              </valueCoding>
            </answerOption>
            <answerOption>
              <valueCoding>
                <system value="http://loinc.org" />
                <code value="14503-7" />
                <display value="Human papilloma virus 16+18 Ag [Presence] in Cervix" />
              </valueCoding>
            </answerOption>
          </item>
        </item>
      
        <!-- item[6] lab specialty, here: Urin Analysis -->
        <item>
          <linkId value="urin" />
          <text value="Urin" />
          <type value="group" />
          <item>
            <linkId value="combur9" />
            <text value="Combur-9" />
            <type value="choice" />
            <repeats value="true" />
            <answerOption>
              <valueCoding>
                <system value="http://loinc.org" />
                <code value="50556-0" />
                <display value="Urinalysis dipstick panel - Urine by Automated test strip" />
              </valueCoding>
            </answerOption>
          </item>
        </item>
      
        <!-- item[7] lab specialty, here: Obstetrical Panels-->
        <item>
          <linkId value="obstetricalPanels" />
          <text value="Schwangerschaftsvorsorge" />
          <type value="group" />
          <!-- Rotes BB, Diff BB, Hepatitis B, Rubella, AB0 Rhesus -->
          <item>
            <linkId value="obstetric" />
            <text value="Obstetric 1996 panel – Serum and Blood" />
            <type value="choice" />
            <repeats value="true" />
            <answerOption>
              <valueCoding>
                <system value="http://loinc.org" />
                <code value="24364-2" />
                <display value="Obstetric 1996 Pnl Ser+Bld" />
              </valueCoding>
            </answerOption>
          </item>
        </item>
      </Questionnaire>
    </resource>
  </entry>

  <!-- entry[4] questionnaireResponse -->
  <entry>
    <fullUrl value="http://example.com/fhir/QuestionnaireResponse/3-gyn" />
    <resource>
      <QuestionnaireResponse xmlns="http://hl7.org/fhir">
        <id value="3-gyn" />
        <meta>
          <versionId value="1" />
          <lastUpdated value="2019-04-01T20:17:53.340+00:00" />
          <profile value="http://fhir.ch/ig/ch-orf/StructureDefinition/ch-orf-questionnaireresponse" />
        </meta>
        <text>
          <status value="generated" />
          <div xmlns="http://www.w3.org/1999/xhtml">
            Lab Order Questionnarie Response Example for Gynecology and Obstrics
            <pre>todo copy text out of rendering</pre>
          </div>
        </text>
      
        <questionnaire value="http://fhir.ch/ig/ch-lab-order/Questionnaire/3-gyn" />
        <status value="completed" />
      
        <!-- item[0] Lab Order Questionnaireresponse Example for Gynecology and Obstrics -->
        <item>
          <linkId value="info" />
          <text value="Lab Order Questionnareresponse Example for Gynecology and Obstrics" />
        </item>
      
        <!-- item[1] order -->
        <item>
          <linkId value="order" />
          <text value="Auftrag" />
          <item>
            <linkId value="order.date" />
            <text value="Auftrags-Datum" />
            <answer>
              <valueDate value="2020-01-01" />
            </answer>
          </item>
          <item>
            <linkId value="order.number" />
            <text value="Auftrags-Nummer" />
            <answer>
              <valueString value="12303" />
            </answer>
          </item>
        </item>
      
        <!-- item[2] orderer -->
        <item>
          <linkId value="orderer" />
          <text value="Auftraggeber" />
      
          <!-- item[2.0] orderer.author -->
          <item>
            <linkId value="orderer.author" />
            <text value="Author" />
            <item>
              <linkId value="orderer.author.visum" />
              <text value="Visum" />
            </item>
            <item>
              <linkId value="orderer.author.organization" />
              <text value="Organization" />
            </item>
            <item>
              <linkId value="orderer.author.lastname" />
              <text value="Name" />
            </item>
            <item>
              <linkId value="orderer.author.firstname" />
              <text value="Vorname" />
            </item>
            <item>
              <linkId value="orderer.author.tel" />
              <text value="Telefon" />
            </item>
            <item>
              <linkId value="orderer.author.e-mail" />
              <text value="E-Mail" />
            </item>
            <item>
              <linkId value="orderer.author.street" />
              <text value="Strasse" />
            </item>
            <item>
              <linkId value="orderer.author.postfach" />
              <text value="Postfach" />
            </item>
            <item>
              <linkId value="orderer.author.zip" />
              <text value="PLZ" />
            </item>
            <item>
              <linkId value="orderer.author.city" />
              <text value="Ort" />
            </item>
          </item>
      
          <!-- item[2.1] orderer.dataenterer -->
          <item>
            <linkId value="orderer.dataenterer" />
            <text value="Erfasser" />
            <item>
              <linkId value="orderer.dataenterer.visum" />
              <text value="Visum" />
            </item>
            <item>
              <linkId value="orderer.dataenterer.organization" />
              <text value="Organization" />
            </item>
            <item>
              <linkId value="orderer.dataenterer.lastname" />
              <text value="Name" />
              <answer>
                <valueString value="Pap" />
                <!-- 
                <valueCoding>
                  <system value="http://tbd" />
                  <code value="datlname" />
                </valueCoding>
                -->
              </answer>
            </item>
            <item>
              <linkId value="orderer.dataenterer.firstname" />
              <definition value="http://fhir.ch/ig/ch-orf/StructureDefinition/ChOrfDataEntryPerson#Practitioner.name.first" />
              <text value="Vorname" />
              <answer>
                <valueString value="Peter" />
              </answer>
            </item>
            <item>
              <linkId value="orderer.dataenterer.tel" />
              <text value="Telefon" />
            </item>
            <item>
              <linkId value="orderer.dataenterer.e-mail" />
              <text value="E-Mail" />
            </item>
            <item>
              <linkId value="orderer.dataenterer.street" />
              <text value="Strasse" />
            </item>
            <item>
              <linkId value="orderer.dataenterer.postfach" />
              <text value="Postfach" />
            </item>
            <item>
              <linkId value="orderer.dataenterer.zip" />
              <text value="PLZ" />
            </item>
            <item>
              <linkId value="orderer.dataenterer.city" />
              <text value="Ort" />
            </item>
          </item>
      
          <!-- item[2.2] orderer.notcontactthisdoc -->
          <item>
            <linkId value="orderer.notcontactthisdoc" />
            <text value="Urgent Notification Contact for this document:" />
            <item>
              <linkId value="orderer.notifcontactthisdoc.visum" />
              <text value="Visum" />
            </item>
            <item>
              <linkId value="orderer.notifcontactthisdoc.organization" />
              <text value="Organization" />
            </item>
            <item>
              <linkId value="orderer.notifcontactthisdoc.lastname" />
              <text value="Name" />
            </item>
            <item>
              <linkId value="orderer.notifcontactthisdoc.firstname" />
              <text value="Vorname" />
            </item>
            <item>
              <linkId value="orderer.notifcontactthisdoc.tel" />
              <text value="Telefon" />
            </item>
            <item>
              <linkId value="orderer.notifcontactthisdoc.e-mail" />
              <text value="E-Mail" />
            </item>
            <item>
              <linkId value="orderer.notifcontactthisdoc.street" />
              <text value="Strasse" />
            </item>
            <item>
              <linkId value="orderer.notifcontactthisdoc.postfach" />
              <text value="Postfach" />
            </item>
            <item>
              <linkId value="orderer.notifcontactthisdoc.zip" />
              <text value="PLZ" />
            </item>
            <item>
              <linkId value="orderer.notifcontactthisdoc.city" />
              <text value="Ort" />
            </item>
          </item>
      
          <!-- item[2.3] orderer.notcontactresponsedoc -->
          <item>
            <linkId value="orderer.notcontactresponsedoc" />
            <text value="Urgent Notification Contact for the response of this document:" />
            <item>
              <linkId value="orderer.notifcontactresponsedoc.visum" />
              <text value="Visum" />
            </item>
            <item>
              <linkId value="orderer.notifcontactresponsedoc.organization" />
              <text value="Organization" />
            </item>
            <item>
              <linkId value="orderer.notifcontactresponsedoc.lastname" />
              <text value="Name" />
            </item>
            <item>
              <linkId value="orderer.notifcontactresponsedoc.firstname" />
              <text value="Vorname" />
            </item>
            <item>
              <linkId value="orderer.notifcontactresponsedoc.tel" />
              <text value="Telefon" />
            </item>
            <item>
              <linkId value="orderer.notifcontactresponsedoc.e-mail" />
              <text value="E-Mail" />
            </item>
            <item>
              <linkId value="orderer.notifcontactresponsedoc.street" />
              <text value="Strasse" />
            </item>
            <item>
              <linkId value="orderer.notifcontactresponsedoc.postfach" />
              <text value="Postfach" />
            </item>
            <item>
              <linkId value="orderer.notifcontactresponsedoc.zip" />
              <text value="PLZ" />
            </item>
            <item>
              <linkId value="orderer.notifcontactresponsedoc.city" />
              <text value="Ort" />
            </item>
          </item>
        </item>
      
        <!-- item[3] receiver -->
        <item>
          <linkId value="receiver" />
          <text value="Receiver" />
          <item>
            <linkId value="receiver.visum" />
            <text value="Visum" />
          </item>
          <item>
            <linkId value="receiver.bereich" />
            <text value="Bereich" />
          </item>
          <item>
            <linkId value="receiver.abt" />
            <text value="Bereich" />
          </item>
          <item>
            <linkId value="receiver.lastname" />
            <text value="Name" />
          </item>
          <item>
            <linkId value="receiver.firstname" />
            <text value="Vorname" />
          </item>
          <item>
            <linkId value="receiver.tel" />
            <text value="Telefon" />
          </item>
          <item>
            <linkId value="receiver.e-mail" />
            <text value="E-Mail" />
          </item>
          <item>
            <linkId value="receiver.cstreet" />
            <text value="Strasse" />
          </item>
          <item>
            <linkId value="receiver.postfach" />
            <text value="Postfach" />
          </item>
          <item>
            <linkId value="receiver.zip" />
            <text value="PLZ" />
          </item>
          <item>
            <linkId value="receiver.city" />
            <text value="Ort" />
          </item>
        </item>
      
        <!-- item[4] patient -->
        <item>
          <linkId value="patient" />
          <text value="Patient" />
          <item>
            <linkId value="patient.lastname" />
            <text value="Name" />
            <answer>
              <valueString value="Rubella" />
            </answer>
          </item>
          <item>
            <linkId value="patient.firstname" />
            <text value="Vorname" />
            <answer>
              <valueString value="Marina" />
            </answer>
          </item>
          <item>
            <linkId value="patient.pid" />
            <text value="PID (sendendes System)" />
            <answer>
              <valueString value="012/08.111103" />
            </answer>
          </item>
          <item>
            <linkId value="patient.sex" />
            <text value="Geschlecht" />
            <answer>
              <valueString value="F" />
            </answer>
          </item>
          <!-- 
          <item>
            <linkId value="patient.zip" />
            <text value="PLZ" />
            <answer>
              <valueString value="5679" />
            </answer>
          </item>
          -->
        </item>
      
        <!-- item[5] lab specialty, here: Cytology and Microbiology-->
        <item>
          <linkId value="cytology" />
          <text value="Cytology and Microbiology" />
          <item>
            <linkId value="cervicalSmear" />
            <text value="Cervical Smear" />
      
            <answer>
              <valueCoding>
                <system value="http://loinc.org" />
                <code value="86662-4" />
                <display value="Pap smear tests - FPAR 2.0 set" />
              </valueCoding>
            </answer>
            <answer>
              <valueCoding>
                <system value="http://loinc.org" />
                <code value="14503-7" />
                <display value="Human papilloma virus 16+18 Ag [Presence] in Cervix" />
              </valueCoding>
            </answer>
          </item>
        </item>
      
        <!-- item[6] lab specialty, here: Urin Analysis -->
        <item>
          <linkId value="urin" />
          <text value="Urin" />
          <item>
            <linkId value="combur9" />
            <text value="Combur-9" />
            <answer>
              <valueCoding>
                <system value="http://loinc.org" />
                <code value="50556-0" />
                <display value="Urinalysis dipstick panel - Urine by Automated test strip" />
              </valueCoding>
            </answer>
          </item>
        </item>
      
        <!-- item[7] lab specialty, here: Obstetrical Panels-->
        <item>
          <linkId value="obstetricalPanels" />
          <text value="Schwangerschaftsvorsorge" />
          <!-- Rotes BB, Diff BB, Hepatitis B, Rubella, AB0 Rhesus -->
          <item>
            <linkId value="obstetric" />
            <text value="Obstetric 1996 panel – Serum and Blood" />
            <answer>
              <valueCoding>
                <system value="http://loinc.org" />
                <code value="24364-2" />
                <display value="Obstetric 1996 Pnl Ser+Bld" />
              </valueCoding>
            </answer>
          </item>
        </item>
      </QuestionnaireResponse>
    </resource>
  </entry>
  
  <!-- entry[5] serviceRequest -->
  <entry>
    <fullUrl value="http://example.com/fhir/ServiceRequest/3-gyn" />
    <resource>
      <ServiceRequest xmlns="http://hl7.org/fhir">
        <id value="3-gyn" />
      
        <meta>
          <profile value="http://fhir.ch/ig/ch-orf/StructureDefinition/ch-orf-servicerequest" />
        </meta>
      
        <!-- 0..1 Identifiers assigned to this order instance by the orderer and/or the receiver and/or order fulfiller. TODO -->
      
        <!-- should be mandatory ?
        <identifier>
        </identifier>
        -->
        <status value="active" />
        <intent value="original-order" />
        <category>
          <!-- 0..* Classification of service, Service Request Category Codes (Example) -->
          <coding>
            <system value="http://snomed.info/sct" />
            <code value="108252007" />
          </coding>
          <text value="Laboratory procedure (procedure)" />
        </category>
        <priority value="routine" /> <!-- 0..1 routine | urgent | asap | stat -->
      
        <subject>
          <reference value="Patient/MarinaRubella" />
        </subject>
        <requester>
          <!-- 0..1 Reference(Practitioner|PractitionerRole|Organization|
          Patient|RelatedPerson|Device) Who/what is requesting service -->
          <reference value="Practitioner/PeterPap" />
        </requester>
      
        <performerType>
          <!-- 0..1 CodeableConcept Performer role -->
          <coding>
            <system value="http://snomed.info/sct" />
            <code value="61246008" />
          </coding>
          <text value="Laboratory medicine specialist (occupation)" />
        </performerType>
      
        <performer>
          <!-- 0..* Reference(Practitioner|PractitionerRole|Organization|
          CareTeam|HealthcareService|Patient|Device|RelatedPerson) Requested performer -->
          <!--<reference value="Organization/LaborPipette" /> braucht Anpassung bei ORF!! -->
          <reference value="Practitioner/PeterPap" />
        </performer>
      
        <reasonCode>
          <!-- 0..* CodeableConcept Explanation/Justification for procedure or service -->
          <coding>
            <system value="http://snomed.info/sct" />
            <code value="702601001" />
          </coding>
          <text value="Routine gynecologic examination (procedure)" />
        </reasonCode>
      
        <insurance>
          <!-- 0..* Bsp. Covid19 Kostenträger; Reference(Coverage|ClaimResponse) Associated insurance coverage -->
          <reference value="Coverage/HealthInsuranceCard" />
        </insurance>
      
        <specimen>
          <!-- 0..* Reference(Specimen) Procedure Samples -->
          <reference value="Specimen/cervix-swab" />
        </specimen>
      
        <specimen>
          <!-- 0..* Reference(Specimen) Procedure Samples -->
          <reference value="Specimen/blood" />
        </specimen>
      
        <specimen>
          <!-- 0..* Reference(Specimen) Procedure Samples -->
          <reference value="Specimen/serum" />
        </specimen>
      
        <specimen>
          <!-- 0..* Reference(Specimen) Procedure Samples -->
          <reference value="Specimen/urin" />
        </specimen>
      
      </ServiceRequest>
    </resource>
  </entry>
</Bundle>