<Bundle xmlns="http://hl7.org/fhir">
  <id value="3-gyn" />
  <meta>
    <versionId value="1" />
    <lastUpdated value="2019-04-01T20:18:41.341+00:00" />
    <profile value="http://fhir.ch/ig/ch-orf/StructureDefinition/ch-orf-document" />
  </meta>
  <identifier>
    <system value="http://test.fhir.ch/id/uuid" />
    <value value="26d3dff7-ab05-4737-a49c-5eccd33595f8" />
  </identifier>
  <type value="document" />
  <timestamp value="2019-04-01T20:18:41.341+00:00" />

  <!-- entry[0] Composistion-->
  <entry>
    <fullUrl value="http://example.com/fhir/Composition/3-gyn" />
    <resource>
      <Composition xmlns="http://hl7.org/fhir">
        <id value="3-gyn" />
        <meta>
          <profile value="http://fhir.ch/ig/ch-orf/StructureDefinition/ch-orf-composition" />
        </meta>
        <text>
          <status value="generated" />
          <div xmlns="http://www.w3.org/1999/xhtml">
                Referral 3-gyn
            </div>
        </text>
      
        <identifier>
          <system value="http://test.fhir.ch/id/uuid" />
          <value value="26d3dff7-ab05-4737-a49c-5eccd33595f7" />
        </identifier>
        <status value="final" />
      
        <type>
          <coding>
            <system value="http://snomed.info/sct" />
            <code value="721965002" />
            <display value="Laboratory order (record artifact)" />
          </coding>
        </type>
      
        <category>
          <coding>
            <system value="http://snomed.info/sct" />
            <code value="721963009" />
            <display value="Order (record artifact)" />
          </coding>
        </category>
      
        <subject>
          <reference value="Patient/MarinaRubella" />
        </subject>
        <date value="2020-03-31T11:46:09+02:00" />
      
        <author>
          <reference value="PractitionerRole/PeterPapGruppenpraxisOlten" />
        </author>
        <title value="Referral 3-gyn" />
      
        <attester>
          <mode value="professional" />
          <time value="2010-03-12T11:46:09+02:00" />
          <party>
            <reference value="Practitioner/PeterPap" />
          </party>
        </attester>
      
        <!-- sections -->
        <section>
          <title value="Referral" />
          <text>
            <status value="generated" />
            <div xmlns="http://www.w3.org/1999/xhtml">
              Referral 3-gyn
            </div>
          </text>
          <entry>
            <reference value="Questionnaire/3-gyn" />
          </entry>
          <entry>
            <reference value="QuestionnaireResponse/3-gyn" />
          </entry>
          <entry>
            <reference value="ServiceRequest/3-gyn" />
          </entry>
        </section>
      </Composition>
    </resource>
  </entry>

  <!-- entry[1] ch-core-Patient -->
  <entry>
    <fullUrl value="http://example.com/fhir/Patient/MarinaRubella" />
    <resource>
      <Patient xmlns="http://hl7.org/fhir">
        <id value="HansGuggindieluft" />
        <meta>
          <profile value="http://fhir.ch/ig/ch-core/StructureDefinition/ch-core-patient" />
        </meta>

        <extension url="http://hl7.org/fhir/StructureDefinition/patient-birthPlace">
          <valueAddress>
            <city value="Zürich" />
            <country value="Schweiz" />
          </valueAddress>
        </extension>
        <extension url="http://fhir.ch/ig/ch-core/StructureDefinition/ch-core-patient-ech-11-placeoforigin">
          <valueAddress>
            <city value="Breitenbach" />
            <state value="BL" />
          </valueAddress>
        </extension>
        <extension url="http://hl7.org/fhir/StructureDefinition/patient-religion">
          <valueCodeableConcept>
            <coding>
              <system value="http://terminology.hl7.org/CodeSystem/v3-ReligiousAffiliation" />
              <code value="1007" />
              <display value="Atheism" />
            </coding>
          </valueCodeableConcept>
        </extension>

        <identifier>
          <type>
            <coding>
              <system value="http://terminology.hl7.org/CodeSystem/v2-0203" />
              <code value="MR" /> <!-- Medical Record Number-->
            </coding>
          </type>
          <system value="urn:oid:2.16.756.5.30.999999.1" />
          <value value="012/08.111104" />
        </identifier>

        <name>
          <family value="Guggindieluft" />
          <given value="Hans" />
        </name>
        <gender value="male" />
        <birthDate value="1981-01-01" />
        <maritalStatus>
          <coding>
            <system value="http://fhir.ch/ig/ch-core/CodeSystem/ech-11-maritalstatus" />
            <code value="5" />
            <display value="unverheiratet" />
          </coding>
        </maritalStatus>
        <communication>
          <language>
            <coding>
              <system value="urn:ietf:bcp:47" />
              <code value="de-CH" />
            </coding>
            <text value="Deutsch (Schweiz)" />
          </language>
          <preferred value="true" />
        </communication>
      </Patient>
    </resource>
  </entry>

  <!--  entry[2] practitioner -->
  <entry>
    <fullUrl value="http://example.com/fhir/Practitioner/PeterPap" />
    <resource>
      <Practitioner xmlns="http://hl7.org/fhir">
        <id value="MarcApgar" />
        <meta>
          <profile value="http://fhir.ch/ig/ch-core/StructureDefinition/ch-core-practitioner" />
        </meta>
        <identifier>
          <system value="urn:oid:2.51.1.3" />
          <value value="7601000050717" />
        </identifier>
        <name>
          <family value="Agpar" />
          <given value="Marc" />
        </name>
        <telecom>
          <system value="email" />
          <value value="marc.apgar@spitalseeblick.ch" />
          <use value="work" />
        </telecom>
      </Practitioner>
    </resource>
  </entry>

  <!-- entry[3] organisation -->
  <entry>
    <fullUrl value="http://example.com/fhir/Organization/GruppenpraxisOlten" />
    <resource>
      <Organization xmlns="http://hl7.org/fhir">
        <id value="GruppenpraxisOlten" />
        <meta>
          <profile value="http://fhir.ch/ig/ch-core/StructureDefinition/ch-core-organization" />
        </meta>
        <name value="Gruppenpraxis Olten" />
        <address>
          <line value="Gerbergasse 12" />
          <city value="Olten" />
          <postalCode value="4600" />
          <country value="CH" />
        </address>
      </Organization>
    </resource>
  </entry>

  <!-- entry[4] practitionerrole-->
  <entry>
    <fullUrl value="http://example.com/fhir/PractitionerRole/PeterPapGruppenpraxisOlten" />
    <resource>
      <PractitionerRole xmlns="http://hl7.org/fhir">
        <id value="PeterPapGruppenpraxisOlten" />
        <meta>
          <profile value="http://fhir.ch/ig/ch-core/StructureDefinition/ch-core-practitionerrole" />
        </meta>
        <practitioner>
          <reference value="Practitioner/PeterPap" />
        </practitioner>
        <organization>
          <reference value="Organization/GruppenpraxisOlten" />
        </organization>
      </PractitionerRole>
    </resource>
  </entry>

  <!-- entry[5] questionnaire -->
  <entry>
    <fullUrl value="http://example.com/fhir/Questionnaire/3-gyn" />
    <resource>
      <Questionnaire xmlns="http://hl7.org/fhir">
        <id value="3-gyn" />
        <meta>
          <versionId value="1" />
          <lastUpdated value="2019-04-01T20:17:53.340+00:00" />
          <profile value="http://fhir.ch/ig/ch-orf/StructureDefinition/ch-orf-questionnaire" />
          <profile value="http://hl7.org/fhir/uv/sdc/StructureDefinition/sdc-questionnaire" />
          <profile value="http://hl7.org/fhir/uv/sdc/StructureDefinition/sdc-questionnaire-extract" />
        </meta>
        <text>
          <status value="generated" />
          <div xmlns="http://www.w3.org/1999/xhtml">
            Lab Order Questionnaire Example for preventive gynecologic screening
            <pre>todo copy text out of rendering</pre>
          </div>
        </text>
      
        <!-- extenstions -->
        <extension url="http://hl7.org/fhir/uv/sdc/StructureDefinition/sdc-questionnaire-targetStructureMap">
          <valueCanonical value="http://fhir.ch/ig/ch-orf/StructureMap/OrfQrToBundle" />
        </extension>
        <extension url="http://hl7.org/fhir/uv/sdc/StructureDefinition/sdc-questionnaire-launchContext">
          <extension url="name">
            <valueId value="Bundle" />
          </extension>
          <extension url="type">
            <valueCode value="Bundle" />
          </extension>
          <extension url="description">
            <valueString value="The Bundle that is to be used to pre-populate the form" />
          </extension>
        </extension>
        <extension url="http://hl7.org/fhir/StructureDefinition/variable">
          <valueExpression>
            <name value="Patient" />
            <language value="text/fhirpath" />
            <expression value="%Bundle.entry[0].resource.subject.resolve()" />
          </valueExpression>
        </extension>
        <extension url="http://hl7.org/fhir/StructureDefinition/variable">
          <valueExpression>
            <name value="Orderer" />
            <language value="text/fhirpath" />
            <expression value="%Bundle.entry[0].resource.author.resolve().ofType(Practitioner)" />
          </valueExpression>
        </extension>
      
        <url value="http://fhir.ch/ig/ch-lab-order/Questionnaire/3-gyn" />
        <name value="LabOrderExample" />
        <title value="Lab Order Example" />
        <status value="draft" />
        <experimental value="true" />
        <subjectType value="Patient" />
        <date value="2018-04-12" />
        <publisher value="eHealth Suisse" />
      
        <!-- item[0] order: referral-min Questionnaire Example -->
        <item>
          <linkId value="order" />
          <text value="Auftrag" />
          <type value="group" />
          <required value="true" />
          <item>
            <!--<extension url="http://hl7.org/fhir/uv/sdc/StructureDefinition/sdc-questionnaire-initialExpression">
                    <valueExpression>
                        <language value="text/fhirpath"/>
                        <expression value="%Bundle.entry[0].resource.extension.where(url=&#39;http://fhir.ch/ig/ch-orf/StructureDefinition/ch-orf-visitnumber&#39;).valueIdentifier.value" />
                    </valueExpression>
                </extension>-->
            <linkId value="order.placerOrderId" />
            <text value="Auftragsnummer des Auftraggebers" />
            <type value="string" />
          </item>
          <item>
            <!--<extension url="http://hl7.org/fhir/uv/sdc/StructureDefinition/sdc-questionnaire-initialExpression">
                    <valueExpression>
                        <language value="text/fhirpath"/>
                        <expression value="" />
                    </valueExpression>
                </extension>-->
            <linkId value="order.fillerOrderId" />
            <text value="Auftragsnummer des Auftragsempfängers" />
            <type value="string" />
          </item>
          <item>
            <!--<extension url="http://hl7.org/fhir/uv/sdc/StructureDefinition/sdc-questionnaire-initialExpression">
                    <valueExpression>
                        <language value="text/fhirpath"/>
                        <expression value="" />
                    </valueExpression>
                </extension>-->
            <linkId value="order.precedentDocumentIdentifier" />
            <text value="Identifier des Vorgängerdokuments" />
            <type value="string" />
          </item>
          <item>
            <!--<extension url="http://hl7.org/fhir/uv/sdc/StructureDefinition/sdc-questionnaire-initialExpression">
                    <valueExpression>
                        <language value="text/fhirpath"/>
                        <expression value="" />
                    </valueExpression>
                </extension>-->
            <linkId value="order.dateTime" />
            <text value="Auftragszeitpunkt" />
            <type value="dateTime" />
            <required value="true" />
          </item>
        </item>
      
        <!-- item[1] Request Receiver: Person/organization who receives the request -->
        <item>
          <linkId value="receiverRequest" />
          <definition value="http://fhir.ch/ig/ch-core/StructureDefinition/ch-core-practitionerrole" />
          <text value="Auftragsempfänger" />
          <type value="group" />
          <item>
            <linkId value="receiverRequest.practitioner" />
            <definition value="http://fhir.ch/ig/ch-core/StructureDefinition/ch-core-practitioner" />
            <text value="Auftragsempfangende Person" />
            <type value="group" />
            <item>
              <!--<extension url="http://hl7.org/fhir/uv/sdc/StructureDefinition/sdc-questionnaire-initialExpression">
                        <valueExpression>
                            <language value="text/fhirpath"/>
                            <expression value="" />
                        </valueExpression>
                    </extension>-->
              <linkId value="receiverRequest.practitioner.familyName" />
              <text value="Name" />
              <type value="string" />
            </item>
            <item>
              <!--<extension url="http://hl7.org/fhir/uv/sdc/StructureDefinition/sdc-questionnaire-initialExpression">
                        <valueExpression>
                            <language value="text/fhirpath"/>
                            <expression value="%Orderer.name.given" />
                        </valueExpression>
                    </extension>-->
              <linkId value="receiverRequest.practitioner.givenName" />
              <text value="Vorname" />
              <type value="string" />
            </item>
            <item>
              <!--<extension url="http://hl7.org/fhir/uv/sdc/StructureDefinition/sdc-questionnaire-initialExpression">
                            <valueExpression>
                                <language value="text/fhirpath"/>
                                <expression value="" />
                            </valueExpression>
                        </extension>-->
              <linkId value="receiverRequest.practitioner.title" />
              <text value="Titel" />
              <type value="string" />
            </item>
            <item>
              <!--<extension url="http://hl7.org/fhir/uv/sdc/StructureDefinition/sdc-questionnaire-initialExpression">
                            <valueExpression>
                                <language value="text/fhirpath"/>
                                <expression value="" />
                            </valueExpression>
                        </extension>-->
              <linkId value="receiverRequest.practitioner.gln" />
              <text value="GLN" />
              <type value="string" />
            </item>
            <item>
              <!--<extension url="http://hl7.org/fhir/uv/sdc/StructureDefinition/sdc-questionnaire-initialExpression">
                            <valueExpression>
                                <language value="text/fhirpath"/>
                                <expression value="" />
                            </valueExpression>
                        </extension>-->
              <linkId value="receiverRequest.practitioner.phone" />
              <text value="Telefon" />
              <type value="string" />
            </item>
            <item>
              <!--<extension url="http://hl7.org/fhir/uv/sdc/StructureDefinition/sdc-questionnaire-initialExpression">
                            <valueExpression>
                                <language value="text/fhirpath"/>
                                <expression value="" />
                            </valueExpression>
                        </extension>-->
              <linkId value="receiverRequest.practitioner.email" />
              <text value="E-Mail" />
              <type value="string" />
            </item>
          </item>
          <item>
            <linkId value="receiverRequest.organization" />
            <definition value="http://fhir.ch/ig/ch-core/StructureDefinition/ch-core-organization" />
            <text value="Auftragsempfangende Organisation" />
            <type value="group" />
            <item>
              <!--<extension url="http://hl7.org/fhir/uv/sdc/StructureDefinition/sdc-questionnaire-initialExpression">
                            <valueExpression>
                                <language value="text/fhirpath"/>
                                <expression value="" />
                            </valueExpression>
                        </extension>-->
              <linkId value="receiverRequest.organization.name" />
              <text value="Name der Organisation" />
              <type value="string" />
            </item>
            <item>
              <!--<extension url="http://hl7.org/fhir/uv/sdc/StructureDefinition/sdc-questionnaire-initialExpression">
                            <valueExpression>
                                <language value="text/fhirpath"/>
                                <expression value="" />
                            </valueExpression>
                        </extension>-->
              <linkId value="receiverRequest.organization.streetAddressLine" />
              <text value="Strasse, Hausnummer, Postfach etc." />
              <type value="string" />
              <repeats value="true" />
            </item>
            <item>
              <!--<extension url="http://hl7.org/fhir/uv/sdc/StructureDefinition/sdc-questionnaire-initialExpression">
                            <valueExpression>
                                <language value="text/fhirpath"/>
                                <expression value="" />
                            </valueExpression>
                        </extension>-->
              <linkId value="receiverRequest.organization.postalCode" />
              <text value="PLZ" />
              <type value="string" />
            </item>
            <item>
              <!--<extension url="http://hl7.org/fhir/uv/sdc/StructureDefinition/sdc-questionnaire-initialExpression">
                            <valueExpression>
                                <language value="text/fhirpath"/>
                                <expression value="" />
                            </valueExpression>
                        </extension>-->
              <linkId value="receiverRequest.organization.city" />
              <text value="Ort" />
              <type value="string" />
            </item>
            <item>
              <!--<extension url="http://hl7.org/fhir/uv/sdc/StructureDefinition/sdc-questionnaire-initialExpression">
                            <valueExpression>
                                <language value="text/fhirpath"/>
                                <expression value="" />
                            </valueExpression>
                        </extension>-->
              <linkId value="receiverRequest.organization.country" />
              <text value="Land" />
              <type value="string" />
            </item>
          </item>
        </item>
      
        <!-- item[2] Patient: The principle target of a particular Form Content is one patient -->
        <item>
          <linkId value="patient" />
          <definition value="http://fhir.ch/ig/ch-core/StructureDefinition/ch-core-patient" />
          <text value="Patient" />
          <type value="group" />
          <item>
            <extension url="http://hl7.org/fhir/uv/sdc/StructureDefinition/sdc-questionnaire-initialExpression">
              <valueExpression>
                <language value="text/fhirpath" />
                <!--  %Bundle.entry[0].resource.subject.resolve().name.family -->
                <expression value="%Patient.name.family" />
              </valueExpression>
            </extension>
            <linkId value="patient.familyName" />
            <text value="Name" />
            <type value="string" />
          </item>
          <item>
            <extension url="http://hl7.org/fhir/uv/sdc/StructureDefinition/sdc-questionnaire-initialExpression">
              <valueExpression>
                <language value="text/fhirpath" />
                <!-- %Bundle.entry[0].resource.subject.resolve().name.given" -->
                <expression value="%Patient.name.given" />
              </valueExpression>
            </extension>
            <linkId value="patient.givenName" />
            <text value="Vorname" />
            <type value="string" />
          </item>
          <item>
            <!--<extension url="http://hl7.org/fhir/uv/sdc/StructureDefinition/sdc-questionnaire-initialExpression">
                    <valueExpression>
                        <language value="text/fhirpath"/>
                        <expression value="" />
                    </valueExpression>
                </extension>-->
            <linkId value="patient.localPid" />
            <text value="Lokale Patienten-ID" />
            <type value="string" />
          </item>
          <item>
            <extension url="http://hl7.org/fhir/uv/sdc/StructureDefinition/sdc-questionnaire-initialExpression">
              <valueExpression>
                <language value="text/fhirpath" />
                <!--  %Bundle.entry[0].resource.subject.resolve().birthDate" -->
                <expression value="%Patient.birthDate" />
              </valueExpression>
            </extension>
            <linkId value="patient.birthDate" />
            <text value="Geburtsdatum" />
            <type value="date" />
          </item>
          <item>
            <!--<extension url="http://hl7.org/fhir/uv/sdc/StructureDefinition/sdc-questionnaire-initialExpression">
                    <valueExpression>
                        <language value="text/fhirpath"/>
                        <expression value="" />
                    </valueExpression>
                </extension>-->
            <linkId value="patient.gender" />
            <text value="Geschlecht" />
            <type value="choice" />
            <answerOption>
              <valueCoding>
                <system value="http://hl7.org/fhir/administrative-gender" />
                <code value="male" />
                <display value="Male" />
              </valueCoding>
              <initialSelected value="true" />
            </answerOption>
            <answerOption>
              <valueCoding>
                <system value="http://hl7.org/fhir/administrative-gender" />
                <code value="female" />
                <display value="Female" />
              </valueCoding>
            </answerOption>
            <answerOption>
              <valueCoding>
                <system value="http://hl7.org/fhir/administrative-gender" />
                <code value="other" />
                <display value="Other" />
              </valueCoding>
            </answerOption>
          </item>
          <item>
            <!--<extension url="http://hl7.org/fhir/uv/sdc/StructureDefinition/sdc-questionnaire-initialExpression">
                    <valueExpression>
                        <language value="text/fhirpath"/>
                        <expression value="" />
                    </valueExpression>
                </extension>-->
            <linkId value="patient.phone" />
            <text value="Telefon" />
            <type value="string" />
          </item>
          <item>
            <!--<extension url="http://hl7.org/fhir/uv/sdc/StructureDefinition/sdc-questionnaire-initialExpression">
                    <valueExpression>
                        <language value="text/fhirpath"/>
                        <expression value="" />
                    </valueExpression>
                </extension>-->
            <linkId value="patient.email" />
            <text value="E-Mail" />
            <type value="string" />
          </item>
          <item>
            <!--<extension url="http://hl7.org/fhir/uv/sdc/StructureDefinition/sdc-questionnaire-initialExpression">
                    <valueExpression>
                        <language value="text/fhirpath"/>
                        <expression value="" />
                    </valueExpression>
                </extension>-->
            <linkId value="patient.streetAddressLine" />
            <text value="Strasse, Hausnummer, Postfach etc." />
            <type value="string" />
            <repeats value="true" />
          </item>
          <item>
            <!--<extension url="http://hl7.org/fhir/uv/sdc/StructureDefinition/sdc-questionnaire-initialExpression">
                    <valueExpression>
                        <language value="text/fhirpath"/>
                        <expression value="" />
                    </valueExpression>
                </extension>-->
            <linkId value="patient.postalCode" />
            <text value="PLZ" />
            <type value="string" />
          </item>
          <item>
            <!--<extension url="http://hl7.org/fhir/uv/sdc/StructureDefinition/sdc-questionnaire-initialExpression">
                    <valueExpression>
                        <language value="text/fhirpath"/>
                        <expression value="" />
                    </valueExpression>
                </extension>-->
            <linkId value="patient.city" />
            <text value="Ort" />
            <type value="string" />
          </item>
          <item>
            <!--<extension url="http://hl7.org/fhir/uv/sdc/StructureDefinition/sdc-questionnaire-initialExpression">
                    <valueExpression>
                        <language value="text/fhirpath"/>
                        <expression value="" />
                    </valueExpression>
                </extension>-->
            <linkId value="patient.country" />
            <text value="Land" />
            <type value="string" />
          </item>
        </item>
      
        <!-- item[3] orderer, orderer.author-->
        <item>
          <linkId value="orderer" />
          <definition value="http://fhir.ch/ig/ch-core/StructureDefinition/ch-core-practitionerrole" />
          <text value="Auftraggeber" />
          <type value="group" />
          <required value="true" />
          <!-- Author: The person/organization responsible for Form Content -->
          <item>
            <linkId value="orderer.author" />
            <definition value="http://fhir.ch/ig/ch-core/StructureDefinition/ch-core-practitioner" />
            <text value="Verantwortlicher" />
            <type value="group" />
            <required value="true" />
            <item>
              <linkId value="orderer.author.practitioner" />
              <text value="Verantwortliche Person" />
              <type value="group" />
              <item>
                <extension url="http://hl7.org/fhir/uv/sdc/StructureDefinition/sdc-questionnaire-initialExpression">
                  <valueExpression>
                    <language value="text/fhirpath" />
                    <!--  %Bundle.entry[0].resource.author.resolve().ofType(Practitioner).name.family -->
                    <expression value="%Orderer.name.family" />
                  </valueExpression>
                </extension>
                <linkId value="orderer.author.practitioner.familyName" />
                <text value="Name" />
                <type value="string" />
              </item>
              <item>
                <extension url="http://hl7.org/fhir/uv/sdc/StructureDefinition/sdc-questionnaire-initialExpression">
                  <valueExpression>
                    <language value="text/fhirpath" />
                    <!--  %Bundle.entry[0].resource.author.resolve().ofType(Practitioner).name.given -->
                    <expression value="%Orderer.name.given" />
                  </valueExpression>
                </extension>
                <linkId value="orderer.author.practitioner.givenName" />
                <text value="Vorname" />
                <type value="string" />
              </item>
              <item>
                <!--<extension url="http://hl7.org/fhir/uv/sdc/StructureDefinition/sdc-questionnaire-initialExpression">
                            <valueExpression>
                                <language value="text/fhirpath"/>
                                <expression value="" />
                            </valueExpression>
                        </extension>-->
                <linkId value="orderer.author.practitioner.title" />
                <text value="Titel" />
                <type value="string" />
              </item>
              <item>
                <!--<extension url="http://hl7.org/fhir/uv/sdc/StructureDefinition/sdc-questionnaire-initialExpression">
                            <valueExpression>
                                <language value="text/fhirpath"/>
                                <expression value="" />
                            </valueExpression>
                        </extension>-->
                <linkId value="orderer.author.practitioner.gln" />
                <text value="GLN" />
                <type value="string" />
              </item>
              <item>
                <!--<extension url="http://hl7.org/fhir/uv/sdc/StructureDefinition/sdc-questionnaire-initialExpression">
                            <valueExpression>
                                <language value="text/fhirpath"/>
                                <expression value="" />
                            </valueExpression>
                        </extension>-->
                <linkId value="orderer.author.practitioner.phone" />
                <text value="Telefon" />
                <type value="string" />
              </item>
              <item>
                <!--<extension url="http://hl7.org/fhir/uv/sdc/StructureDefinition/sdc-questionnaire-initialExpression">
                            <valueExpression>
                                <language value="text/fhirpath"/>
                                <expression value="" />
                            </valueExpression>
                        </extension>-->
                <linkId value="orderer.author.practitioner.email" />
                <text value="E-Mail" />
                <type value="string" />
              </item>
            </item>
            <item>
              <linkId value="orderer.author.organization" />
              <definition value="http://fhir.ch/ig/ch-core/StructureDefinition/ch-core-organization" />
              <text value="Verantwortliche Organisation" />
              <type value="group" />
              <item>
                <!--<extension url="http://hl7.org/fhir/uv/sdc/StructureDefinition/sdc-questionnaire-initialExpression">
                            <valueExpression>
                                <language value="text/fhirpath"/>
                                <expression value="" />
                            </valueExpression>
                        </extension>-->
                <linkId value="orderer.author.organization.name" />
                <text value="Name der Organisation" />
                <type value="string" />
              </item>
              <item>
                <!--<extension url="http://hl7.org/fhir/uv/sdc/StructureDefinition/sdc-questionnaire-initialExpression">
                            <valueExpression>
                                <language value="text/fhirpath"/>
                                <expression value="" />
                            </valueExpression>
                        </extension>-->
                <linkId value="orderer.author.organization.streetAddressLine" />
                <text value="Strasse, Hausnummer, Postfach etc." />
                <type value="string" />
                <repeats value="true" />
              </item>
              <item>
                <!--<extension url="http://hl7.org/fhir/uv/sdc/StructureDefinition/sdc-questionnaire-initialExpression">
                            <valueExpression>
                                <language value="text/fhirpath"/>
                                <expression value="" />
                            </valueExpression>
                        </extension>-->
                <linkId value="orderer.author.organization.postalCode" />
                <text value="PLZ" />
                <type value="string" />
              </item>
              <item>
                <!--<extension url="http://hl7.org/fhir/uv/sdc/StructureDefinition/sdc-questionnaire-initialExpression">
                            <valueExpression>
                                <language value="text/fhirpath"/>
                                <expression value="" />
                            </valueExpression>
                        </extension>-->
                <linkId value="orderer.author.organization.city" />
                <text value="Ort" />
                <type value="string" />
              </item>
              <item>
                <!--<extension url="http://hl7.org/fhir/uv/sdc/StructureDefinition/sdc-questionnaire-initialExpression">
                            <valueExpression>
                                <language value="text/fhirpath"/>
                                <expression value="" />
                            </valueExpression>
                        </extension>-->
                <linkId value="orderer.author.organization.country" />
                <text value="Land" />
                <type value="string" />
              </item>
            </item>
          </item>
          <!-- Data Entry Person: The person who has typed/filled in the Form Content. -->
          <item>
            <linkId value="orderer.dataenterer" />
            <definition value="http://fhir.ch/ig/ch-core/StructureDefinition/ch-core-practitionerrole" />
            <text value="Erfasser" />
            <type value="group" />
            <item>
              <linkId value="orderer.dataenterer.practitioner" />
              <definition value="http://fhir.ch/ig/ch-core/StructureDefinition/ch-core-practitioner" />
              <text value="Erfassende Person" />
              <type value="group" />
              <item>
                <linkId value="orderer.dataenterer.practitioner.familyName" />
                <text value="Name" />
                <type value="string" />
              </item>
              <item>
                <linkId value="orderer.dataenterer.practitioner.givenName" />
                <text value="Vorname" />
                <type value="string" />
              </item>
              <item>
                <linkId value="orderer.dataenterer.practitioner.phone" />
                <text value="Telefon" />
                <type value="string" />
              </item>
              <item>
                <linkId value="orderer.dataenterer.practitioner.email" />
                <text value="E-Mail" />
                <type value="string" />
              </item>
            </item>
          </item>
          <!-- Urgent Notification Contact for this document (request) -->
          <item>
            <linkId value="orderer.notificationContactRequest" />
            <definition value="http://fhir.ch/ig/ch-core/StructureDefinition/ch-core-practitionerrole" />
            <text value="Benachrichtigungskontakt für die Anfrage" />
            <type value="group" />
            <item>
              <linkId value="orderer.notificationContactRequest.practitioner" />
              <definition value="http://fhir.ch/ig/ch-core/StructureDefinition/ch-core-practitioner" />
              <text value="Zu benachrichtigende Person" />
              <type value="group" />
              <item>
                <linkId value="orderer.notificationContactRequest.practitioner.familyName" />
                <text value="Name" />
                <type value="string" />
              </item>
              <item>
                <linkId value="orderer.notificationContactRequest.practitioner.givenName" />
                <text value="Vorname" />
                <type value="string" />
              </item>
              <item>
                <!--<extension url="http://hl7.org/fhir/uv/sdc/StructureDefinition/sdc-questionnaire-initialExpression">
                            <valueExpression>
                                <language value="text/fhirpath"/>
                                <expression value="" />
                            </valueExpression>
                        </extension>-->
                <linkId value="orderer.notificationContactRequest.practitioner.title" />
                <text value="Titel" />
                <type value="string" />
              </item>
              <item>
                <linkId value="orderer.notificationContactRequest.practitioner.phone" />
                <text value="Telefon" />
                <type value="string" />
              </item>
              <item>
                <linkId value="orderer.notificationContactRequest.practitioner.email" />
                <text value="E-Mail" />
                <type value="string" />
              </item>
            </item>
          </item>
          <!-- Urgent Notification Contact for the Response to this document -->
          <item>
            <linkId value="orderer.notificationContactResponse" />
            <definition value="http://fhir.ch/ig/ch-core/StructureDefinition/ch-core-practitionerrole" />
            <text value="Benachrichtigungskontakt für die Antwort" />
            <type value="group" />
            <item>
              <linkId value="orderer.notificationContactResponse.practitioner" />
              <definition value="http://fhir.ch/ig/ch-core/StructureDefinition/ch-core-practitioner" />
              <text value="Zu benachrichtigende Person" />
              <type value="group" />
              <item>
                <linkId value="orderer.notificationContactResponse.practitioner.familyName" />
                <text value="Name" />
                <type value="string" />
              </item>
              <item>
                <linkId value="orderer.notificationContactResponse.practitioner.givenName" />
                <text value="Vorname" />
                <type value="string" />
              </item>
              <item>
                <!--<extension url="http://hl7.org/fhir/uv/sdc/StructureDefinition/sdc-questionnaire-initialExpression">
                            <valueExpression>
                                <language value="text/fhirpath"/>
                                <expression value="" />
                            </valueExpression>
                        </extension>-->
                <linkId value="orderer.notificationContactResponse.practitioner.title" />
                <text value="Titel" />
                <type value="string" />
              </item>
              <item>
                <linkId value="orderer.notificationContactResponse.practitioner.phone" />
                <text value="Telefon" />
                <type value="string" />
              </item>
              <item>
                <linkId value="orderer.notificationContactResponse.practitioner.email" />
                <text value="E-Mail" />
                <type value="string" />
              </item>
            </item>
          </item>
        </item>
      
        <!-- item[4] Response Receiver: Person/organization who receives the response -->
        <item>
          <linkId value="receiverResponse" />
          <definition value="http://fhir.ch/ig/ch-core/StructureDefinition/ch-core-practitionerrole" />
          <text value="Rückmeldungsempfänger" />
          <type value="group" />
          <repeats value="true" />
          <item>
            <linkId value="receiverResponse.practitioner" />
            <definition value="http://fhir.ch/ig/ch-core/StructureDefinition/ch-core-practitioner" />
            <text value="Rückmeldungsempfangende Person" />
            <type value="group" />
            <item>
              <!--<extension url="http://hl7.org/fhir/uv/sdc/StructureDefinition/sdc-questionnaire-initialExpression">
                        <valueExpression>
                            <language value="text/fhirpath"/>
                            <expression value="" />
                        </valueExpression>
                    </extension>-->
              <linkId value="receiverResponse.practitioner.familyName" />
              <text value="Name" />
              <type value="string" />
            </item>
            <item>
              <!--<extension url="http://hl7.org/fhir/uv/sdc/StructureDefinition/sdc-questionnaire-initialExpression">
                        <valueExpression>
                            <language value="text/fhirpath"/>
                            <expression value="%Orderer.name.given" />
                        </valueExpression>
                    </extension>-->
              <linkId value="receiverResponse.practitioner.givenName" />
              <text value="Vorname" />
              <type value="string" />
            </item>
            <item>
              <!--<extension url="http://hl7.org/fhir/uv/sdc/StructureDefinition/sdc-questionnaire-initialExpression">
                            <valueExpression>
                                <language value="text/fhirpath"/>
                                <expression value="" />
                            </valueExpression>
                        </extension>-->
              <linkId value="receiverResponse.practitioner.title" />
              <text value="Titel" />
              <type value="string" />
            </item>
            <item>
              <!--<extension url="http://hl7.org/fhir/uv/sdc/StructureDefinition/sdc-questionnaire-initialExpression">
                            <valueExpression>
                                <language value="text/fhirpath"/>
                                <expression value="" />
                            </valueExpression>
                        </extension>-->
              <linkId value="receiverResponse.practitioner.phone" />
              <text value="Telefon" />
              <type value="string" />
            </item>
            <item>
              <!--<extension url="http://hl7.org/fhir/uv/sdc/StructureDefinition/sdc-questionnaire-initialExpression">
                            <valueExpression>
                                <language value="text/fhirpath"/>
                                <expression value="" />
                            </valueExpression>
                        </extension>-->
              <linkId value="receiverResponse.practitioner.email" />
              <text value="E-Mail" />
              <type value="string" />
            </item>
          </item>
        </item>
      
        <!-- item[5] lab specialty, here: Cytology and Microbiology-->
        <item>
          <linkId value="cytology" />
          <text value="Cytology and Microbiology" />
          <type value="group" />
          <item>
            <linkId value="cervicalSmear" />
            <text value="Cervical Smear" />
            <type value="choice" />
            <repeats value="true" />
      
            <answerOption>
              <valueCoding>
                <system value="http://loinc.org" />
                <code value="86662-4" />
                <display value="Pap smear tests - FPAR 2.0 set" />
              </valueCoding>
            </answerOption>
            <answerOption>
              <valueCoding>
                <system value="http://loinc.org" />
                <code value="14503-7" />
                <display value="Human papilloma virus 16+18 Ag [Presence] in Cervix" />
              </valueCoding>
            </answerOption>
          </item>
        </item>
      
        <!-- item[6] lab specialty, here: Urin Analysis -->
        <item>
          <linkId value="urin" />
          <text value="Urin" />
          <type value="group" />
          <item>
            <linkId value="combur9" />
            <text value="Combur-9" />
            <type value="choice" />
            <repeats value="true" />
            <answerOption>
              <valueCoding>
                <system value="http://loinc.org" />
                <code value="50556-0" />
                <display value="Urinalysis dipstick panel - Urine by Automated test strip" />
              </valueCoding>
            </answerOption>
          </item>
        </item>
      
        <!-- item[7] lab specialty, here: Obstetrical Panels-->
        <item>
          <linkId value="obstetricalPanels" />
          <text value="Schwangerschaftsvorsorge" />
          <type value="group" />
          <!-- Rotes BB, Diff BB, Hepatitis B, Rubella, AB0 Rhesus -->
          <item>
            <linkId value="obstetric" />
            <text value="Obstetric 1996 panel – Serum and Blood" />
            <type value="choice" />
            <repeats value="true" />
            <answerOption>
              <valueCoding>
                <system value="http://loinc.org" />
                <code value="24364-2" />
                <display value="Obstetric 1996 Pnl Ser+Bld" />
              </valueCoding>
            </answerOption>
          </item>
        </item>
      </Questionnaire>
    </resource>
  </entry>

  <!-- entry[6] questionnaireResponse -->
  <entry>
    <fullUrl value="http://example.com/fhir/QuestionnaireResponse/3-gyn" />
    <resource>
      <QuestionnaireResponse xmlns="http://hl7.org/fhir">
        <id value="3-gyn" />
        <meta>
          <versionId value="1" />
          <lastUpdated value="2019-04-01T20:17:53.340+00:00" />
          <profile value="http://fhir.ch/ig/ch-orf/StructureDefinition/ch-orf-questionnaireresponse" />
        </meta>
        <text>
          <status value="generated" />
          <div xmlns="http://www.w3.org/1999/xhtml">
            Lab Order Questionnarie Response Example for Gynecology and Obstrics
            <pre>todo copy text out of rendering</pre>
          </div>
        </text>
      
        <questionnaire value="http://fhir.ch/ig/ch-lab-order/Questionnaire/3-gyn" />
        <status value="completed" />
      
        <!-- item[0] order: referral-min Questionnaire Example -->
        <item>
          <linkId value="order" />
          <text value="Auftrag" />
          <item>
            <linkId value="order.placerOrderId" />
            <text value="Auftragsnummer des Auftraggebers" />
            <answer>
              <valueString value="123" />
            </answer>
          </item>
          <item>
            <linkId value="order.fillerOrderId" />
            <text value="Auftragsnummer des Auftragsempfängers" />
          </item>
          <item>
            <linkId value="order.precedentDocumentIdentifier" />
            <text value="Identifier des Vorgängerdokuments" />
          </item>
          <item>
            <linkId value="order.dateTime" />
            <text value="Auftragszeitpunkt" />
            <answer>
              <valueDateTime value="2019-03-31T11:46:09+02:00" />
            </answer>
          </item>
        </item>
      
        <!-- item[1] Request Receiver: Person/organization who receives the request -->
        <item>
          <linkId value="receiverRequest" />
          <definition value="http://fhir.ch/ig/ch-core/StructureDefinition/ch-core-practitionerrole" />
          <text value="Auftragsempfänger" />
          <item>
            <linkId value="receiverRequest.practitioner" />
            <definition value="http://fhir.ch/ig/ch-core/StructureDefinition/ch-core-practitioner" />
            <text value="Auftragsempfangende Person" />
            <item>
              <linkId value="receiverRequest.practitioner.familyName" />
              <text value="Name" />
              <answer>
                <valueString value="Röntgen" />
              </answer>
            </item>
            <item>
              <linkId value="receiverRequest.practitioner.givenName" />
              <text value="Vorname" />
              <answer>
                <valueString value="Hans" />
              </answer>
            </item>
            <item>
              <linkId value="receiverRequest.practitioner.title" />
              <text value="Titel" />
              <answer>
                <valueString value="Dr. med." />
              </answer>
            </item>
            <item>
              <linkId value="receiverRequest.practitioner.gln" />
              <text value="GLN" />
              <answer>
                <valueString value="7601000066878" />
              </answer>
            </item>
            <item>
              <linkId value="receiverRequest.practitioner.phone" />
              <text value="Telefon" />
              <answer>
                <valueString value="044 412 00 99" />
              </answer>
            </item>
            <item>
              <linkId value="receiverRequest.practitioner.email" />
              <text value="E-Mail" />
              <answer>
                <valueString value="hans.roentgen@kantonsspital.ch" />
              </answer>
            </item>
          </item>
          <item>
            <linkId value="receiverRequest.organization" />
            <definition value="http://fhir.ch/ig/ch-core/StructureDefinition/ch-core-organization" />
            <text value="Auftragsempfangende Organisation" />
            <item>
              <linkId value="receiverRequest.organization.name" />
              <text value="Name der Organisation" />
              <answer>
                <valueString value="Kantonsspital" />
              </answer>
            </item>
            <item>
              <linkId value="receiverRequest.organization.streetAddressLine" />
              <text value="Strasse, Hausnummer, Postfach etc." />
              <answer>
                <valueString value="Kantonsstrasse 14" />
              </answer>
              <answer>
                <valueString value="Postfach 14" />
              </answer>
            </item>
            <item>
              <linkId value="receiverRequest.organization.postalCode" />
              <text value="PLZ" />
              <answer>
                <valueString value="8000" />
              </answer>
            </item>
            <item>
              <linkId value="receiverRequest.organization.city" />
              <text value="Ort" />
              <answer>
                <valueString value="Zürich" />
              </answer>
            </item>
            <item>
              <linkId value="receiverRequest.organization.country" />
              <text value="Land" />
              <answer>
                <valueString value="Schweiz" />
              </answer>
            </item>
          </item>
        </item>
      
        <!-- item[2] Patient: The principle target of a particular Form Content is one patient -->
        <item>
          <linkId value="patient" />
          <definition value="http://fhir.ch/ig/ch-core/StructureDefinition/ch-core-patient" />
          <text value="Patient" />
          <item>
            <linkId value="patient.familyName" />
            <text value="Name" />
            <answer>
              <valueString value="Musterfrau" />
            </answer>
          </item>
          <item>
            <linkId value="patient.givenName" />
            <text value="Vorname" />
            <answer>
              <valueString value="Erika" />
            </answer>
          </item>
          <item>
            <linkId value="patient.localPid" />
            <text value="Lokale Patienten-ID" />
            <answer>
              <valueString value="11.22.33.4567" />
            </answer>
          </item>
          <item>
            <linkId value="patient.birthDate" />
            <text value="Geburtsdatum" />
            <answer>
              <valueDate value="1970-03-14" />
            </answer>
          </item>
          <item>
            <linkId value="patient.gender" />
            <text value="Geschlecht" />
            <answer>
              <valueCoding>
                <system value="http://hl7.org/fhir/administrative-gender" />
                <code value="female" />
                <display value="Female" />
              </valueCoding>
            </answer>
          </item>
          <item>
            <linkId value="patient.phone" />
            <text value="Telefon" />
            <answer>
              <valueString value="079 979 79 79" />
            </answer>
          </item>
          <item>
            <linkId value="patient.email" />
            <text value="E-Mail" />
            <answer>
              <valueString value="erika@musterfrau.ch" />
            </answer>
          </item>
          <item>
            <linkId value="patient.streetAddressLine" />
            <text value="Strasse, Hausnummer, Postfach etc." />
            <answer>
              <valueString value="Musterweg" />
            </answer>
            <answer>
              <valueString value="6a" />
            </answer>
          </item>
          <item>
            <linkId value="patient.postalCode" />
            <text value="PLZ" />
            <answer>
              <valueString value="8000" />
            </answer>
          </item>
          <item>
            <linkId value="patient.city" />
            <text value="Ort" />
            <answer>
              <valueString value="Zürich" />
            </answer>
          </item>
          <item>
            <linkId value="patient.country" />
            <text value="Land" />
            <answer>
              <valueString value="Schweiz" />
            </answer>
          </item>
        </item>
      
        <!-- item[3] orderer, orderer.author-->
        <item>
          <linkId value="orderer" />
          <definition value="http://fhir.ch/ig/ch-core/StructureDefinition/ch-core-practitionerrole" />
          <text value="Auftraggeber" />
          <!-- Author: The person/organization responsible for Form Content -->
          <item>
            <linkId value="orderer.author" />
            <definition value="http://fhir.ch/ig/ch-core/StructureDefinition/ch-core-practitioner" />
            <text value="Verantwortlicher" />
            <item>
              <linkId value="orderer.author.practitioner" />
              <text value="Verantwortliche Person" />
              <item>
                <linkId value="orderer.author.practitioner.familyName" />
                <text value="Name" />
                <answer>
                  <valueString value="Meier" />
                </answer>
              </item>
              <item>
                <linkId value="orderer.author.practitioner.givenName" />
                <text value="Vorname" />
                <answer>
                  <valueString value="Sabine" />
                </answer>
              </item>
              <item>
                <linkId value="orderer.author.practitioner.title" />
                <text value="Titel" />
                <answer>
                  <valueString value="Dr. med." />
                </answer>
              </item>
              <item>
                <linkId value="orderer.author.practitioner.gln" />
                <text value="GLN" />
                <answer>
                  <valueString value="7601000034321" />
                </answer>
              </item>
              <item>
                <linkId value="orderer.author.practitioner.phone" />
                <text value="Telefon" />
                <answer>
                  <valueString value="044 333 22 11" />
                </answer>
              </item>
              <item>
                <linkId value="orderer.author.practitioner.email" />
                <text value="E-Mail" />
                <answer>
                  <valueString value="sabine.meier@praxisseeblick.ch" />
                </answer>
              </item>
            </item>
            <item>
              <linkId value="orderer.author.organization" />
              <definition value="http://fhir.ch/ig/ch-core/StructureDefinition/ch-core-organization" />
              <text value="Verantwortliche Organisation" />
              <item>
                <linkId value="orderer.author.organization.name" />
                <text value="Name der Organisation" />
                <answer>
                  <valueString value="Praxis Seeblick" />
                </answer>
              </item>
              <item>
                <linkId value="orderer.author.organization.streetAddressLine" />
                <text value="Strasse, Hausnummer, Postfach etc." />
                <answer>
                  <valueString value="Seestrasse 133" />
                </answer>
                <answer>
                  <valueString value="Haus C" />
                </answer>
              </item>
              <item>
                <linkId value="orderer.author.organization.postalCode" />
                <text value="PLZ" />
                <answer>
                  <valueString value="8000" />
                </answer>
              </item>
              <item>
                <linkId value="orderer.author.organization.city" />
                <text value="Ort" />
                <answer>
                  <valueString value="Zürich" />
                </answer>
              </item>
              <item>
                <linkId value="orderer.author.organization.country" />
                <text value="Land" />
                <answer>
                  <valueString value="Schweiz" />
                </answer>
              </item>
            </item>
          </item>
          <!-- Data Entry Person: The person who has typed/filled in the Form Content. -->
          <item>
            <linkId value="orderer.dataenterer" />
            <definition value="http://fhir.ch/ig/ch-core/StructureDefinition/ch-core-practitionerrole" />
            <text value="Erfasser" />
            <item>
              <linkId value="orderer.dataenterer.practitioner" />
              <definition value="http://fhir.ch/ig/ch-core/StructureDefinition/ch-core-practitioner" />
              <text value="Erfassende Person" />
              <item>
                <linkId value="orderer.dataenterer.practitioner.familyName" />
                <text value="Name" />
                <answer>
                  <valueString value="Boss" />
                </answer>
              </item>
              <item>
                <linkId value="orderer.dataenterer.practitioner.givenName" />
                <text value="Vorname" />
                <answer>
                  <valueString value="Stabilo" />
                </answer>
              </item>
              <item>
                <linkId value="orderer.dataenterer.practitioner.phone" />
                <text value="Telefon" />
                <answer>
                  <valueString value="044 333 22 12" />
                </answer>
              </item>
              <item>
                <linkId value="orderer.dataenterer.practitioner.email" />
                <text value="E-Mail" />
                <answer>
                  <valueString value="stabilo.boss@praxisseeblick.ch" />
                </answer>
              </item>
            </item>
          </item>
          <!-- Urgent Notification Contact for this document (request) -->
          <item>
            <linkId value="orderer.notificationContactRequest" />
            <definition value="http://fhir.ch/ig/ch-core/StructureDefinition/ch-core-practitionerrole" />
            <text value="Benachrichtigungskontakt für die Anfrage" />
            <item>
              <linkId value="orderer.notificationContactRequest.practitioner" />
              <definition value="http://fhir.ch/ig/ch-core/StructureDefinition/ch-core-practitioner" />
              <text value="Zu benachrichtigende Person" />
              <item>
                <linkId value="orderer.notificationContactRequest.practitioner.familyName" />
                <text value="Name" />
              </item>
              <item>
                <linkId value="orderer.notificationContactRequest.practitioner.givenName" />
                <text value="Vorname" />
              </item>
              <item>
                <linkId value="orderer.notificationContactRequest.practitioner.title" />
                <text value="Titel" />
              </item>
              <item>
                <linkId value="orderer.notificationContactRequest.practitioner.phone" />
                <text value="Telefon" />
              </item>
              <item>
                <linkId value="orderer.notificationContactRequest.practitioner.email" />
                <text value="E-Mail" />
              </item>
            </item>
          </item>
          <!-- Urgent Notification Contact for the Response to this document -->
          <item>
            <linkId value="orderer.notificationContactResponse" />
            <definition value="http://fhir.ch/ig/ch-core/StructureDefinition/ch-core-practitionerrole" />
            <text value="Benachrichtigungskontakt für die Antwort" />
            <item>
              <linkId value="orderer.notificationContactResponse.practitioner" />
              <definition value="http://fhir.ch/ig/ch-core/StructureDefinition/ch-core-practitioner" />
              <text value="Zu benachrichtigende Person" />
              <item>
                <linkId value="orderer.notificationContactResponse.practitioner.familyName" />
                <text value="Name" />
                <answer>
                  <valueString value="Müller" />
                </answer>
              </item>
              <item>
                <linkId value="orderer.notificationContactResponse.practitioner.givenName" />
                <text value="Vorname" />
                <answer>
                  <valueString value="Peter" />
                </answer>
              </item>
              <item>
                <linkId value="orderer.notificationContactResponse.practitioner.title" />
                <text value="Titel" />
                <answer>
                  <valueString value="Dr. med." />
                </answer>
              </item>
              <item>
                <linkId value="orderer.notificationContactResponse.practitioner.phone" />
                <text value="Telefon" />
                <answer>
                  <valueString value="044 333 22 13" />
                </answer>
              </item>
              <item>
                <linkId value="orderer.notificationContactResponse.practitioner.email" />
                <text value="E-Mail" />
                <answer>
                  <valueString value="peter.mueller@praxisseeblick.ch" />
                </answer>
              </item>
            </item>
          </item>
        </item>
      
        <!-- item[4] Response Receiver: Person/organization who receives the response -->
        <item>
          <linkId value="receiverResponse" />
          <definition value="http://fhir.ch/ig/ch-core/StructureDefinition/ch-core-practitionerrole" />
          <text value="Rückmeldungsempfänger" />
          <item>
            <linkId value="receiverResponse.practitioner" />
            <definition value="http://fhir.ch/ig/ch-core/StructureDefinition/ch-core-practitioner" />
            <text value="Rückmeldungsempfangende Person" />
            <item>
              <linkId value="receiverResponse.practitioner.familyName" />
              <text value="Name" />
              <answer>
                <valueString value="Meier" />
              </answer>
            </item>
            <item>
              <linkId value="receiverResponse.practitioner.givenName" />
              <text value="Vorname" />
              <answer>
                <valueString value="Sabine" />
              </answer>
            </item>
            <item>
              <linkId value="receiverResponse.practitioner.title" />
              <text value="Titel" />
              <answer>
                <valueString value="Dr. med." />
              </answer>
            </item>
            <item>
              <linkId value="receiverResponse.practitioner.phone" />
              <text value="Telefon" />
              <answer>
                <valueString value="044 333 22 11" />
              </answer>
            </item>
            <item>
              <linkId value="receiverResponse.practitioner.email" />
              <text value="E-Mail" />
              <answer>
                <valueString value="sabine.meier@praxisseeblick.ch" />
              </answer>
            </item>
          </item>
        </item>
      
        <!-- item[5] lab specialty, here: Cytology and Microbiology-->
        <item>
          <linkId value="cytology" />
          <text value="Cytology and Microbiology" />
          <item>
            <linkId value="cervicalSmear" />
            <text value="Cervical Smear" />
      
            <answer>
              <valueCoding>
                <system value="http://loinc.org" />
                <code value="86662-4" />
                <display value="Pap smear tests - FPAR 2.0 set" />
              </valueCoding>
            </answer>
            <answer>
              <valueCoding>
                <system value="http://loinc.org" />
                <code value="14503-7" />
                <display value="Human papilloma virus 16+18 Ag [Presence] in Cervix" />
              </valueCoding>
            </answer>
          </item>
        </item>
      
        <!-- item[6] lab specialty, here: Urin Analysis -->
        <item>
          <linkId value="urin" />
          <text value="Urin" />
          <item>
            <linkId value="combur9" />
            <text value="Combur-9" />
            <answer>
              <valueCoding>
                <system value="http://loinc.org" />
                <code value="50556-0" />
                <display value="Urinalysis dipstick panel - Urine by Automated test strip" />
              </valueCoding>
            </answer>
          </item>
        </item>
      
        <!-- item[7] lab specialty, here: Obstetrical Panels-->
        <item>
          <linkId value="obstetricalPanels" />
          <text value="Schwangerschaftsvorsorge" />
          <!-- Rotes BB, Diff BB, Hepatitis B, Rubella, AB0 Rhesus -->
          <item>
            <linkId value="obstetric" />
            <text value="Obstetric 1996 panel – Serum and Blood" />
            <answer>
              <valueCoding>
                <system value="http://loinc.org" />
                <code value="24364-2" />
                <display value="Obstetric 1996 Pnl Ser+Bld" />
              </valueCoding>
            </answer>
          </item>
        </item>
      </QuestionnaireResponse>
    </resource>
  </entry>
  
  <!-- entry[7] serviceRequest -->
  <entry>
    <fullUrl value="http://example.com/fhir/ServiceRequest/3-gyn" />
    <resource>
      <ServiceRequest xmlns="http://hl7.org/fhir">
        <id value="3-gyn" />
      
        <meta>
          <profile value="http://fhir.ch/ig/ch-orf/StructureDefinition/ch-orf-servicerequest" />
        </meta>
      
        <!-- 0..1 Identifiers assigned to this order instance by the orderer and/or the receiver and/or order fulfiller. TODO -->
      
        <!-- should be mandatory ?
        <identifier>
        </identifier>
        -->
        <status value="active" />
        <intent value="original-order" />
        <category>
          <!-- 0..* Classification of service, Service Request Category Codes (Example) -->
          <coding>
            <system value="http://snomed.info/sct" />
            <code value="108252007" />
          </coding>
          <text value="Laboratory procedure (procedure)" />
        </category>
        <priority value="routine" /> <!-- 0..1 routine | urgent | asap | stat -->
      
        <subject>
          <reference value="Patient/MarinaRubella" />
        </subject>
        <requester>
          <!-- 0..1 Reference(Practitioner|PractitionerRole|Organization|
          Patient|RelatedPerson|Device) Who/what is requesting service -->
          <reference value="PractitionerRole/PeterPapGruppenpraxisOlten" />
        </requester>
      
        <performerType>
          <!-- 0..1 CodeableConcept Performer role -->
          <coding>
            <system value="http://snomed.info/sct" />
            <code value="61246008" />
          </coding>
          <text value="Laboratory medicine specialist (occupation)" />
        </performerType>
      
        <performer>
          <!-- 0..* Reference(Practitioner|PractitionerRole|Organization|
          CareTeam|HealthcareService|Patient|Device|RelatedPerson) Requested performer -->
          <!--<reference value="Organization/LaborPipette" /> braucht Anpassung bei ORF!! -->
          <reference value="PractitionerRole/EvaErlenmeyerLaborPipette" />
        </performer>
      
        <reasonCode>
          <!-- 0..* CodeableConcept Explanation/Justification for procedure or service -->
          <coding>
            <system value="http://snomed.info/sct" />
            <code value="702601001" />
          </coding>
          <text value="Routine gynecologic examination (procedure)" />
        </reasonCode>
      
        <insurance>
          <!-- 0..* Bsp. Covid19 Kostenträger; Reference(Coverage|ClaimResponse) Associated insurance coverage -->
          <reference value="Coverage/HealthInsuranceCard" />
        </insurance>
      
        <specimen>
          <!-- 0..* Reference(Specimen) Procedure Samples -->
          <reference value="Specimen/cervix-swab" />
        </specimen>
      
        <specimen>
          <!-- 0..* Reference(Specimen) Procedure Samples -->
          <reference value="Specimen/blood" />
        </specimen>
      
        <specimen>
          <!-- 0..* Reference(Specimen) Procedure Samples -->
          <reference value="Specimen/serum" />
        </specimen>
      
        <specimen>
          <!-- 0..* Reference(Specimen) Procedure Samples -->
          <reference value="Specimen/urin" />
        </specimen>
      
      </ServiceRequest>
    </resource>
  </entry>
</Bundle>