{"resourceType":"Bundle","id":"CdaContainingOriginalRepresentationAsPdfA","identifier":{"system":"urn:ietf:rfc:3986","value":"urn:uuid:11778932-3d19-486b-afe6-e32a1165c978"},"type":"document","timestamp":"2018-02-06T16:57:00+01:00","entry":[{"fullUrl":"urn:uuid:991633bb-f27c-484c-9822-334f1b635e75","resource":{"resourceType":"Composition","id":"991633bb-f27c-484c-9822-334f1b635e75","language":"en-US","text":{"status":"extensions","div":"<div xmlns=\"http://www.w3.org/1999/xhtml\" xml:lang=\"en-US\" lang=\"en-US\"><p><b>Generated Narrative</b></p><p><b>EPR Version Number</b>: 1</p><p><b>EPR Information Recipient</b>: <a href=\"#Organization_e118f753-caaa-4696-991a-b20a796ce782\">See above (Organization/e118f753-caaa-4696-991a-b20a796ce782)</a></p><blockquote><p><b>EPR Data Enterer</b></p><h3>Urls</h3><table class=\"grid\"><tr><td>-</td></tr><tr><td>*</td></tr></table><p><b>value</b>: <a href=\"#PractitionerRole_cac33923-b081-4060-bd57-46ee35dd5a33\">See above (PractitionerRole/cac33923-b081-4060-bd57-46ee35dd5a33)</a></p><h3>Urls</h3><table class=\"grid\"><tr><td>-</td></tr><tr><td>*</td></tr></table><p><b>value</b>: 3 Oct 2017, 14:15:00</p></blockquote><p><b>identifier</b>: id: urn:uuid:11778932-3d19-486b-afe6-e32a1165c978</p><p><b>status</b>: final</p><p><b>type</b>: <span title=\"Codes: {http://loinc.org 28616-1}, {http://snomed.info/sct 371535009}\">Physician Transfer note</span></p><p><b>date</b>: 6 Feb 2018, 16:57:00</p><p><b>author</b>: </p><ul><li><a href=\"#Practitioner_5e5d0948-61b0-4555-9a8f-40bacdc0cb8c\">See above (Practitioner/5e5d0948-61b0-4555-9a8f-40bacdc0cb8c)</a></li><li><a href=\"#Organization_74f3642a-835f-407a-a427-5e403fe8b0b3\">See above (Organization/74f3642a-835f-407a-a427-5e403fe8b0b3)</a></li></ul><p><b>title</b>: Transfer note for radiological diagnostics</p><p><b>confidentiality</b>: N</p><h3>Attesters</h3><table class=\"grid\"><tr><td>-</td><td><b>Mode</b></td><td><b>Time</b></td><td><b>Party</b></td></tr><tr><td>*</td><td>legal</td><td>2017-10-03</td><td><a href=\"#Practitioner_7347db10-d4b3-4cc4-be86-dc2224fdf030\">See above (Practitioner/7347db10-d4b3-4cc4-be86-dc2224fdf030)</a></td></tr></table><p><b>custodian</b>: <a href=\"#Organization_28c3d63b-47d4-4f5f-9bbe-afd3a19cefc2\">See above (Organization/28c3d63b-47d4-4f5f-9bbe-afd3a19cefc2)</a></p></div>"},"extension":[{"url":"http://fhir.ch/ig/ch-core/StructureDefinition/ch-ext-epr-versionnumber","valueUnsignedInt":1},{"url":"http://fhir.ch/ig/ch-core/StructureDefinition/ch-ext-epr-informationrecipient","valueReference":{"reference":"Organization/e118f753-caaa-4696-991a-b20a796ce782"}},{"url":"http://fhir.ch/ig/ch-core/StructureDefinition/ch-ext-epr-dataenterer","extension":[{"url":"enterer","valueReference":{"reference":"PractitionerRole/cac33923-b081-4060-bd57-46ee35dd5a33"}},{"url":"http://fhir.ch/ig/ch-core/StructureDefinition/ch-ext-epr-time","valueDateTime":"2017-10-03T13:15:00+01:00"}]}],"identifier":{"system":"urn:ietf:rfc:3986","value":"urn:uuid:11778932-3d19-486b-afe6-e32a1165c978"},"status":"final","type":{"coding":[{"system":"http://loinc.org","code":"28616-1","display":"Physician Transfer note"},{"system":"http://snomed.info/sct","code":"371535009","display":"Transfer summary report"}]},"subject":{"reference":"Patient/d80b05d6-2b3b-443e-9797-e4ac8615f7ce"},"date":"2018-02-06T16:57:00+01:00","author":[{"extension":[{"url":"http://fhir.ch/ig/ch-core/StructureDefinition/ch-ext-epr-time","valueDateTime":"2017-10-03T16:09:00+01:00"}],"reference":"Practitioner/5e5d0948-61b0-4555-9a8f-40bacdc0cb8c"},{"reference":"Organization/74f3642a-835f-407a-a427-5e403fe8b0b3"}],"title":"Transfer note for radiological diagnostics","confidentiality":"N","_confidentiality":{"extension":[{"url":"http://fhir.ch/ig/ch-core/StructureDefinition/ch-ext-epr-confidentialitycode","valueCodeableConcept":{"coding":[{"system":"http://snomed.info/sct","code":"17621005","display":"Normally accessible"}]}}]},"attester":[{"mode":"legal","time":"2017-10-03","party":{"reference":"Practitioner/7347db10-d4b3-4cc4-be86-dc2224fdf030"}}],"custodian":{"reference":"Organization/28c3d63b-47d4-4f5f-9bbe-afd3a19cefc2"},"section":[{"title":"Ordered diagnostics","text":{"status":"generated","div":"<div xmlns=\"http://www.w3.org/1999/xhtml\"><span>\n\t\t\t\t\t\t\tThe patient is awaiting your invitation.<br/></span><span style=\"font-style: italic\">\n\t\t\t\t\t\t\tSpecification of the desired examination<br/></span></div>"}},{"title":"Urgency / preferred date","text":{"status":"generated","div":"<div xmlns=\"http://www.w3.org/1999/xhtml\"><span style=\"font-style: italic\">\n\t\t\t\t\t\t\tInformation on the preferred date\n\t\t\t\t\t\t</span></div>"}},{"title":"Question","text":{"status":"generated","div":"<div xmlns=\"http://www.w3.org/1999/xhtml\"><span style=\"font-style: italic\">\n\t\t\t\t\t\t\tReason for the examination and information on the current conditions\n\t\t\t\t\t\t</span></div>"}},{"title":"Information about the patient","text":{"status":"generated","div":"<div xmlns=\"http://www.w3.org/1999/xhtml\"><span style=\"font-style: italic\">\n\t\t\t\t\t\t\tSuccessful preliminary examinations<br/>\n\t\t\t\t\t\t\tDiagnostic copy - receiver<br/></span></div>"}},{"title":"Clinical information","text":{"status":"generated","div":"<div xmlns=\"http://www.w3.org/1999/xhtml\"><span style=\"font-style: italic\">\n\t\t\t\t\t\t\tDescription of the current conditions<br/>\n\t\t\t\t\t\t\tPregnancy (yes / no)<br/>\n\t\t\t\t\t\t\tLaboratory results (Quick / Tc, creatinine)<br/>\n\t\t\t\t\t\t\tKnown allergies<br/></span></div>"}},{"title":"Original representation","code":{"coding":[{"system":"http://loinc.org","code":"55108-5","display":"Clinical presentation"}]},"text":{"status":"generated","div":"<div xmlns=\"http://www.w3.org/1999/xhtml\">\n\t\t\t\t\t\tRepresentation of the original view:\n\t\t\t\t\t\t<img src=\"pdf1\"/></div>"},"entry":[{"extension":[{"url":"http://hl7.org/fhir/StructureDefinition/narrativeLink","valueUrl":"pdf1"}],"reference":"Binary/8f304c87-ed20-4e9a-b928-db4116eb6594"}]}]}},{"fullUrl":"urn:uuid:d80b05d6-2b3b-443e-9797-e4ac8615f7ce","resource":{"resourceType":"Patient","id":"d80b05d6-2b3b-443e-9797-e4ac8615f7ce","text":{"status":"generated","div":"<div xmlns=\"http://www.w3.org/1999/xhtml\"><p><b>Generated Narrative</b></p><p><b>identifier</b>: Medical record number: 8733</p><p><b>name</b>: John DOE (OFFICIAL)</p><p><b>telecom</b>: <a href=\"tel:+41.32.685.12.34\">+41.32.685.12.34</a>, <a href=\"tel:+41.32.123.77.88\">+41.32.123.77.88</a>, <a href=\"mailto:john.doe@sampledomain.ch\">john.doe@sampledomain.ch</a></p><p><b>gender</b>: male</p><p><b>birthDate</b>: 1948-06-11</p><p><b>address</b>: suffering avenue 10 Specimentown 9876 CH (HOME)</p><p><b>managingOrganization</b>: <a href=\"#Organization_c1a98d0c-802b-4cce-b922-93eee325cc14\">See above (Organization/c1a98d0c-802b-4cce-b922-93eee325cc14)</a></p></div>"},"identifier":[{"type":{"coding":[{"system":"http://terminology.hl7.org/CodeSystem/v2-0203","code":"MR"}]},"system":"urn:oid:2.999","value":"8733"}],"name":[{"use":"official","family":"DOE","given":["John"]}],"telecom":[{"system":"phone","value":"+41.32.685.12.34","use":"home"},{"system":"phone","value":"+41.32.123.77.88","use":"work"},{"system":"email","value":"john.doe@sampledomain.ch","use":"work"}],"gender":"male","birthDate":"1948-06-11","address":[{"use":"home","line":["suffering avenue","10"],"city":"Specimentown","postalCode":"9876","country":"CH"}],"managingOrganization":{"reference":"Organization/c1a98d0c-802b-4cce-b922-93eee325cc14"}}},{"fullUrl":"urn:uuid:c1a98d0c-802b-4cce-b922-93eee325cc14","resource":{"resourceType":"Organization","id":"c1a98d0c-802b-4cce-b922-93eee325cc14","text":{"status":"generated","div":"<div xmlns=\"http://www.w3.org/1999/xhtml\"><p><b>Generated Narrative</b></p><p><b>identifier</b>: id: 7608888888888</p><p><b>name</b>: Dr. med. Always Ready, Group practice CH</p></div>"},"identifier":[{"system":"urn:oid:2.51.1.3","value":"7608888888888"}],"name":"Dr. med. Always Ready, Group practice CH"}},{"fullUrl":"urn:uuid:5e5d0948-61b0-4555-9a8f-40bacdc0cb8c","resource":{"resourceType":"Practitioner","id":"5e5d0948-61b0-4555-9a8f-40bacdc0cb8c","text":{"status":"generated","div":"<div xmlns=\"http://www.w3.org/1999/xhtml\"><p><b>Generated Narrative</b></p><p><b>identifier</b>: id: 7608888888888</p><p><b>name</b>: Always Ready (OFFICIAL)</p></div>"},"identifier":[{"system":"urn:oid:2.51.1.3","value":"7608888888888"}],"name":[{"use":"official","family":"Ready","given":["Always"],"prefix":["Dr. med."],"suffix":["General practitioner"]}]}},{"fullUrl":"urn:uuid:74f3642a-835f-407a-a427-5e403fe8b0b3","resource":{"resourceType":"Organization","id":"74f3642a-835f-407a-a427-5e403fe8b0b3","text":{"status":"generated","div":"<div xmlns=\"http://www.w3.org/1999/xhtml\"><p><b>Generated Narrative</b></p><p><b>identifier</b>: id: 7609999999999</p><p><b>name</b>: Group practice CH</p><p><b>telecom</b>: <a href=\"tel:+41.32.234.55.66\">+41.32.234.55.66</a>, fax: +41.32.234.66.77(WORK), <a href=\"mailto:ready@gruppenpraxis.ch\">ready@gruppenpraxis.ch</a>, <a href=\"www.grouppractice.ch\">www.grouppractice.ch</a></p><p><b>address</b>: doctors street 2 Samplecity 8888 CH (WORK)</p></div>"},"identifier":[{"system":"urn:oid:2.51.1.3","value":"7609999999999"}],"name":"Group practice CH","telecom":[{"system":"phone","value":"+41.32.234.55.66","use":"work"},{"system":"fax","value":"+41.32.234.66.77","use":"work"},{"system":"email","value":"ready@gruppenpraxis.ch","use":"work"},{"system":"url","value":"www.grouppractice.ch","use":"work"}],"address":[{"use":"work","line":["doctors street","2"],"city":"Samplecity","postalCode":"8888","country":"CH"}]}},{"fullUrl":"urn:uuid:7347db10-d4b3-4cc4-be86-dc2224fdf030","resource":{"resourceType":"Practitioner","id":"7347db10-d4b3-4cc4-be86-dc2224fdf030","text":{"status":"generated","div":"<div xmlns=\"http://www.w3.org/1999/xhtml\"><p><b>Generated Narrative</b></p><p><b>identifier</b>: id: 7607777777777</p><p><b>name</b>: Always Ready (OFFICIAL)</p></div>"},"identifier":[{"system":"urn:oid:2.51.1.3","value":"7607777777777"}],"name":[{"use":"official","family":"Ready","given":["Always"],"prefix":["Dr. med."],"suffix":["General practitioner"]}]}},{"fullUrl":"urn:uuid:28c3d63b-47d4-4f5f-9bbe-afd3a19cefc2","resource":{"resourceType":"Organization","id":"28c3d63b-47d4-4f5f-9bbe-afd3a19cefc2","text":{"status":"generated","div":"<div xmlns=\"http://www.w3.org/1999/xhtml\"><p><b>Generated Narrative</b></p><p><b>identifier</b>: id: 7608888888888</p><p><b>name</b>: Group practice CH, Dr. med. Always Ready, General practitioner</p><p><b>address</b>: Doctors street 2 Samplecity 8888 CH (WORK)</p></div>"},"identifier":[{"system":"urn:oid:2.51.1.3","value":"7608888888888"}],"name":"Group practice CH, Dr. med. Always Ready, General practitioner","address":[{"use":"work","line":["Doctors street","2"],"city":"Samplecity","postalCode":"8888","country":"CH"}]}},{"fullUrl":"urn:uuid:e118f753-caaa-4696-991a-b20a796ce782","resource":{"resourceType":"Organization","id":"e118f753-caaa-4696-991a-b20a796ce782","text":{"status":"generated","div":"<div xmlns=\"http://www.w3.org/1999/xhtml\"><p><b>Generated Narrative</b></p><p><b>identifier</b>: id: 7603333333333</p><p><b>name</b>: RoDiag Radiology Institute</p><p><b>address</b>: Raystreet 1 Samplecity 8888 CH (WORK)</p></div>"},"identifier":[{"system":"urn:oid:2.51.1.3","value":"7603333333333"}],"name":"RoDiag Radiology Institute","address":[{"use":"work","line":["Raystreet","1"],"city":"Samplecity","postalCode":"8888","country":"CH"}]}},{"fullUrl":"urn:uuid:cac33923-b081-4060-bd57-46ee35dd5a33","resource":{"resourceType":"PractitionerRole","id":"cac33923-b081-4060-bd57-46ee35dd5a33","text":{"status":"generated","div":"<div xmlns=\"http://www.w3.org/1999/xhtml\"><p><b>Generated Narrative</b></p><p><b>practitioner</b>: <a href=\"#Practitioner_urn:uuid:be3ba855-6bef-4c36-92a1-8b76fefd3629\">See above (Practitioner/urn:uuid:be3ba855-6bef-4c36-92a1-8b76fefd3629)</a></p></div>"},"practitioner":{"reference":"urn:uuid:be3ba855-6bef-4c36-92a1-8b76fefd3629","type":"Practitioner"}}},{"fullUrl":"urn:uuid:be3ba855-6bef-4c36-92a1-8b76fefd3629","resource":{"resourceType":"Practitioner","id":"urn:uuid:be3ba855-6bef-4c36-92a1-8b76fefd3629","text":{"status":"generated","div":"<div xmlns=\"http://www.w3.org/1999/xhtml\"><p><b>Generated Narrative</b></p><p><b>identifier</b>: id: 0812763</p><p><b>name</b>: Stabilo Kristin (OFFICIAL)</p></div>"},"identifier":[{"system":"urn:oid:2.999","value":"0812763"}],"name":[{"use":"official","family":"Kristin","given":["Stabilo"]}]}},{"fullUrl":"urn:uuid:8f304c87-ed20-4e9a-b928-db4116eb6594","resource":{"resourceType":"Binary","id":"8f304c87-ed20-4e9a-b928-db4116eb6594","language":"en-US","contentType":"application/pdf","data":"JVBERi0xLjQNJf////8KNDQgMCBvYmoNWyAzMiAzMiAyNTAgNDQgNDQgMjUwIDQ1IDQ1IDMzMyA0\n\t\t\t\t\t\t\t\tNiA0NiAyNTAgNDcgNDcgMjc4IDQ4IDQ4IDUwMCA0OSA0OSA1MDAgNTAgNTAgNTAwIDU0IDU0IDUw\n\t\t\t\t\t\t\t\tMCA1NSA1NSA1MDAgNTYgNTYgNTAwIDU4IDU4IDI3OCA2NiA2NiA2NjcgNjcgNjcgNjY3IDcyIDcy\n\t\t\t\t\t\t\t\tIDcyMiA3NiA3NiA2MTEgODAgODAgNTU2IDg0IDg0IDYxMSA5NyA5NyA0NDQgOTkgOTkgNDQ0IDEw\n\t\t\t\t\t\t\t\tMCAxMDAgNTAwIDEwMSAxMDEgNDQ0IDEwMiAxMDIgMzMzIDEwMyAxMDMgNTAwIDEwNCAxMDQgNTAw\n\t\t\t\t\t\t\t\tIDEwNSAxMDUgMjc4IDEwNiAxMDYgMjc4IDEwNyAxMDcgNTAwIDEwOCAxMDggMjc4IDExMCAxMTAg\n\t\t\t\t\t\t\t\tNTAwIDExMSAxMTEgNTAwIDExMiAxMTIgNTAwIDExNCAxMTQgMzMzIDExNSAxMTUgMzg5IDExNiAx\n\t\t\t\t\t\t\t\tMTYgMjc4IDExNyAxMTcgNTAwIDExOCAxMTggNTAwXQ1lbmRvYmoNNDMgMCBvYmoNWyAzMiAzMiAz\n\t\t\t\t\t\t\t\tNTIgNDAgNDAgNDU0IDQxIDQxIDQ1NCA0NCA0NCAzNjQgNDUgNDUgNDU0IDQ3IDQ3IDQ1NCA2OCA2\n\t\t\t\t\t\t\t\tOCA3NjYgNzMgNzMgNDIxIDc1IDc1IDY5MyA3NiA3NiA1NTcgODAgODAgNjAzIDgxIDgxIDc4NyA4\n\t\t\t\t\t\t\t\tMiA4MiA2OTUgODMgODMgNjg0IDg0IDg0IDYxNiA5NyA5NyA2MDEgOTggOTggNjIzIDk5IDk5IDUy\n\t\t\t\t\t\t\t\tMSAxMDAgMTAwIDYyMyAxMDEgMTAxIDU5NiAxMDIgMTAyIDM1MiAxMDMgMTAzIDYyMiAxMDQgMTA0\n\t\t\t\t\t\t\t\tIDYzMyAxMDUgMTA1IDI3NCAxMDcgMTA3IDU4NyAxMDggMTA4IDI3NCAxMDkgMTA5IDk3MyAxMTAg\n\t\t\t\t\t\t\t\tMTEwIDYzMyAxMTEgMTExIDYwNyAxMTIgMTEyIDYyMyAxMTQgMTE0IDQyNyAxMTUgMTE1IDUyMSAx\n\t\t\t\t\t\t\t\tMTYgMTE2IDM5NCAxMTcgMTE3IDYzMyAxMTggMTE4IDU5MSAxMTkgMTE5IDgxOCAxMjAgMTIwIDU5\n\t\t\t\t\t\t\t\tMiAxMjEgMTIxIDU5MV0NZW5kb2JqDTQyIDAgb2JqDVsgMzIgMzIgMzUyIDQzIDQzIDgxOCA0NCA0\n\t\t\t\t\t\t\t\tNCAzNjQgNDYgNDYgMzY0IDQ4IDQ4IDYzNiA0OSA0OSA2MzYgNTAgNTAgNjM2IDUxIDUxIDYzNiA1\n\t\t\t\t\t\t\t\tMiA1MiA2MzYgNTMgNTMgNjM2IDU0IDU0IDYzNiA1NSA1NSA2MzYgNTYgNTYgNjM2IDU3IDU3IDYz\n\t\t\t\t\t\t\t\tNiA1OCA1OCA0NTQgNjQgNjQgMTAwMCA2NSA2NSA2ODQgNjYgNjYgNjg2IDY3IDY3IDY5OCA2OCA2\n\t\t\t\t\t\t\t\tOCA3NzEgNzAgNzAgNTc1IDcxIDcxIDc3NSA3MiA3MiA3NTEgNzMgNzMgNDIxIDc0IDc0IDQ1NSA3\n\t\t\t\t\t\t\t\tNSA3NSA2OTMgNzcgNzcgODQzIDc5IDc5IDc4NyA4MCA4MCA2MDMgODIgODIgNjk1IDgzIDgzIDY4\n\t\t\t\t\t\t\t\tNCA4NCA4NCA2MTYgODcgODcgOTg5IDk3IDk3IDYwMSA5OCA5OCA2MjMgOTkgOTkgNTIxIDEwMCAx\n\t\t\t\t\t\t\t\tMDAgNjIzIDEwMSAxMDEgNTk2IDEwMiAxMDIgMzUyIDEwMyAxMDMgNjIzIDEwNCAxMDQgNjMzIDEw\n\t\t\t\t\t\t\t\tNSAxMDUgMjc0IDEwNiAxMDYgMzQ0IDEwOCAxMDggMjc0IDEwOSAxMDkgOTczIDExMCAxMTAgNjMz\n\t\t\t\t\t\t\t\tIDExMSAxMTEgNjA3IDExMiAxMTIgNjIzIDExNCAxMTQgNDI3IDExNSAxMTUgNTIxIDExNiAxMTYg\n\t\t\t\t\t\t\t\tMzk0IDExNyAxMTcgNjMzIDExOCAxMTggNTkyIDExOSAxMTkgODE4IDEyMCAxMjAgNTkyIDEyMSAx\n\t\t\t\t\t\t\t\tMjEgNTkyXQ1lbmRvYmoNNDEgMCBvYmoNWyAzMiAzMiAzNDIgNDcgNDcgNjg5IDU4IDU4IDQwMiA2\n\t\t\t\t\t\t\t\tNSA2NSA3NzYgNjcgNjcgNzI0IDY4IDY4IDgzMCA2OSA2OSA2ODMgNzMgNzMgNTQ2IDc0IDc0IDU1\n\t\t\t\t\t\t\t\tNSA3NiA3NiA2MzcgNzkgNzkgODUwIDgwIDgwIDczMyA4MSA4MSA4NTAgODQgODQgNjgyIDg1IDg1\n\t\t\t\t\t\t\t\tIDgxMiA5NyA5NyA2NjggOTggOTggNjk5IDk5IDk5IDU4OCAxMDAgMTAwIDY5OSAxMDEgMTAxIDY2\n\t\t\t\t\t\t\t\tNCAxMDIgMTAyIDQyMiAxMDMgMTAzIDY5OSAxMDQgMTA0IDcxMiAxMDUgMTA1IDM0MiAxMDggMTA4\n\t\t\t\t\t\t\t\tIDM0MiAxMDkgMTA5IDEwNTggMTEwIDExMCA3MTIgMTExIDExMSA2ODcgMTEyIDExMiA2OTkgMTE0\n\t\t\t\t\t\t\t\tIDExNCA0OTcgMTE1IDExNSA1OTMgMTE2IDExNiA0NTYgMTE3IDExNyA3MTIgMTE4IDExOCA2NTAg\n\t\t\t\t\t\t\t\tMTIxIDEyMSA2NTFdDWVuZG9iag00MCAwIG9iag08PC9EZWNvZGVQYXJtc1sgbnVsbF0vRmlsdGVy\n\t\t\t\t\t\t\t\tWy9GbGF0ZURlY29kZV0vTGVuZ3RoIDIzMD4+c3RyZWFtCnjabFBLasQwDN3nFFpOF4Ob6XYYKCmF\n\t\t\t\t\t\t\t\tLPqhaQ/gWEowNLJQnEVuX9vJTKFUCxvpfXiSadqnln0E867BdRRh8IxKc1jUEfQ0eq7qE6B3ce/K\n\t\t\t\t\t\t\t\t6yYrlUnibp0jTS0PAR42Fi6yM81H+uaoKxweMfR0B0hDZd4UST2PcGiROPq47kC3iHzTlGZQlwkx\n\t\t\t\t\t\t\t\tbkjzYuXVTgSmGB2vwuNX0/0yPlchOJW+3iK4gDSLdaSWR6rO96kucH5Odcnuf/Bd1Q//0GHrsuqK\n\t\t\t\t\t\t\t\tZ4N8h1s6t6imYOUMJVHO4plu95QgWVUW+wEAAP//AwDV333ZDWVuZHN0cmVhbQ1lbmRvYmoNMzkg\n\t\t\t\t\t\t\t\tMCBvYmoNPDwvTGVuZ3RoIDIyNjYvU3VidHlwZS9YTUwvVHlwZS9NZXRhZGF0YT4+c3RyZWFtCjw/\n\t\t\t\t\t\t\t\teHBhY2tldCBiZWdpbj0n77u/JyBpZD0nVzVNME1wQ2VoaUh6cmVTek5UY3prYzlkJz8+Cjx4Onht\n\t\t\t\t\t\t\t\tcG1ldGEgeDp4bXB0az0iMy4xLTcwMSIgeG1sbnM6eD0iYWRvYmU6bnM6bWV0YS8iPgogIDxyZGY6\n\t\t\t\t\t\t\t\tUkRGIHhtbG5zOnJkZj0iaHR0cDovL3d3dy53My5vcmcvMTk5OS8wMi8yMi1yZGYtc3ludGF4LW5z\n\t\t\t\t\t\t\t\tIyI+CiAgICA8cmRmOkRlc2NyaXB0aW9uIHJkZjphYm91dD0iIiB4bWxuczp4bXA9Imh0dHA6Ly9u\n\t\t\t\t\t\t\t\tcy5hZG9iZS5jb20veGFwLzEuMC8iPgogICAgICA8eG1wOkNyZWF0ZURhdGU+MjAxOC0wMi0xMlQx\n\t\t\t\t\t\t\t\tMTowNjoyMVo8L3htcDpDcmVhdGVEYXRlPgogICAgICA8eG1wOkNyZWF0b3JUb29sPkZpcmVmb3g8\n\t\t\t\t\t\t\t\tL3htcDpDcmVhdG9yVG9vbD4KICAgICAgPHhtcDpNb2RpZnlEYXRlPjIwMTgtMDItMTJUMTE6MDY6\n\t\t\t\t\t\t\t\tMjNaPC94bXA6TW9kaWZ5RGF0ZT4KICAgICAgPHhtcDpNZXRhZGF0YURhdGU+MjAxOC0wMi0xMlQx\n\t\t\t\t\t\t\t\tMTowNjoyM1o8L3htcDpNZXRhZGF0YURhdGU+CiAgICA8L3JkZjpEZXNjcmlwdGlvbj4KICAgIDxy\n\t\t\t\t\t\t\t\tZGY6RGVzY3JpcHRpb24gcmRmOmFib3V0PSIiIHhtbG5zOmRjPSJodHRwOi8vcHVybC5vcmcvZGMv\n\t\t\t\t\t\t\t\tZWxlbWVudHMvMS4xLyI+CiAgICAgIDxkYzpmb3JtYXQ+YXBwbGljYXRpb24vcGRmPC9kYzpmb3Jt\n\t\t\t\t\t\t\t\tYXQ+CiAgICA8L3JkZjpEZXNjcmlwdGlvbj4KICAgIDxyZGY6RGVzY3JpcHRpb24gcmRmOmFib3V0\n\t\t\t\t\t\t\t\tPSIiIHhtbG5zOnBkZj0iaHR0cDovL25zLmFkb2JlLmNvbS9wZGYvMS4zLyI+CiAgICAgIDxwZGY6\n\t\t\t\t\t\t\t\tUHJvZHVjZXI+U29saWQgUERGIENyZWF0b3IgICg5LjEuMzA1MC4xKTwvcGRmOlByb2R1Y2VyPgog\n\t\t\t\t\t\t\t\tICAgPC9yZGY6RGVzY3JpcHRpb24+CiAgICA8cmRmOkRlc2NyaXB0aW9uIHJkZjphYm91dD0iIiB4\n\t\t\t\t\t\t\t\tbWxuczp4bXBNTT0iaHR0cDovL25zLmFkb2JlLmNvbS94YXAvMS4wL21tLyI+CiAgICAgIDx4bXBN\n\t\t\t\t\t\t\t\tTTpEb2N1bWVudElEPnV1aWQ6ZjZlNGRiMjAtNWMwZS00YTBhLWE2ZTMtMjQzNzVhZTcwY2VjPC94\n\t\t\t\t\t\t\t\tbXBNTTpEb2N1bWVudElEPgogICAgPC9yZGY6RGVzY3JpcHRpb24+CiAgICA8cmRmOkRlc2NyaXB0\n\t\t\t\t\t\t\t\taW9uIHJkZjphYm91dD0iIiB4bWxuczpwZGZhaWQ9Imh0dHA6Ly93d3cuYWlpbS5vcmcvcGRmYS9u\n\t\t\t\t\t\t\t\tcy9pZC8iPgogICAgICA8cGRmYWlkOmNvbmZvcm1hbmNlPkE8L3BkZmFpZDpjb25mb3JtYW5jZT4K\n\t\t\t\t\t\t\t\tICAgICAgPHBkZmFpZDpwYXJ0PjE8L3BkZmFpZDpwYXJ0PgogICAgPC9yZGY6RGVzY3JpcHRpb24+\n\t\t\t\t\t\t\t\tCiAgPC9yZGY6UkRGPgo8L3g6eG1wbWV0YT4KCiAgICAgICAgICAgICAgICAgICAgICAgICAgICAg\n\t\t\t\t\t\t\t\tICAgICAgICAgICAgICAgICAgICAgICAgICAgICAgICAgICAgICAgICAgICAgICAgICAgICAgICAg\n\t\t\t\t\t\t\t\tICAgICAgICAgICAgICANCiAgICAgICAgICAgICAgICAgICAgICAgICAgICAgICAgICAgICAgICAg\n\t\t\t\t\t\t\t\tICAgICAgICAgICAgICAgICAgICAgICAgICAgICAgICAgICAgICAgICAgICAgICAgICAgICAgICAg\n\t\t\t\t\t\t\t\tICANCiAgICAgICAgICAgICAgICAgICAgICAgICAgICAgICAgICAgICAgICAgICAgICAgICAgICAg\n\t\t\t\t\t\t\t\tICAgICAgICAgICAgICAgICAgICAgICAgICAgICAgICAgICAgICAgICAgICAgICANCiAgICAgICAg\n\t\t\t\t\t\t\t\tICAgICAgICAgICAgICAgICAgICAgICAgICAgICAgICAgICAgICAgICAgICAgICAgICAgICAgICAg\n\t\t\t\t\t\t\t\tICAgICAgICAgICAgICAgICAgICAgICAgICAgICAgICAgICANCiAgICAgICAgICAgICAgICAgICAg\n\t\t\t\t\t\t\t\tICAgICAgICAgICAgICAgICAgICAgICAgICAgICAgICAgICAgICAgICAgICAgICAgICAgICAgICAg\n\t\t\t\t\t\t\t\tICAgICAgICAgICAgICAgICAgICAgICANCiAgICAgICAgICAgICAgICAgICAgICAgICAgICAgICAg\n\t\t\t\t\t\t\t\tICAgICAgICAgICAgICAgICAgICAgICAgICAgICAgICAgICAgICAgICAgICAgICAgICAgICAgICAg\n\t\t\t\t\t\t\t\tICAgICAgICAgICANCiAgICAgICAgICAgICAgICAgICAgICAgICAgICAgICAgICAgICAgICAgICAg\n\t\t\t\t\t\t\t\tICAgICAgICAgICAgICAgICAgICAgICAgICAgICAgICAgICAgICAgICAgICAgICAgICAgICAgICAN\n\t\t\t\t\t\t\t\tCiAgICAgICAgICAgICAgICAgICAgICAgICAgICAgICAgICAgICAgICAgICAgICAgICAgICAgICAg\n\t\t\t\t\t\t\t\tICAgICAgICAgICAgICAgICAgICAgICAgICAgICAgICAgICAgICAgICAgICANCiAgICAgICAgICAg\n\t\t\t\t\t\t\t\tICAgICAgICAgICAgICAgICAgICAgICAgICAgICAgICAgICAgICAgICAgICAgICAgICAgICAgICAg\n\t\t\t\t\t\t\t\tICAgICAgICAgICAgICAgICAgICAgICAgICAgICAgICANCiAgICAgICAgICAgICAgICAgICAgICAg\n\t\t\t\t\t\t\t\tICAgICAgICAgICAgICAgICAgICAgICAgICAgICAgICAgICAgICAgICAgICAgICAgICAgICAgICAg\n\t\t\t\t\t\t\t\tICAgICAgICAgICAgICAgICAgICANCjw/eHBhY2tldCBlbmQ9J3cnPz4NZW5kc3RyZWFtDWVuZG9i\n\t\t\t\t\t\t\t\tag0zOCAwIG9iag08PC9EZXN0T3V0cHV0UHJvZmlsZSAzNyAwIFIvSW5mbyhHZW5lcmljIFJHQiBQ\n\t\t\t\t\t\t\t\tcm9maWxlKS9PdXRwdXRDb25kaXRpb25JZGVudGlmaWVyKEdlbmVyaWMgUkdCIFByb2ZpbGUpL1Jl\n\t\t\t\t\t\t\t\tZ2lzdHJ5TmFtZShodHRwOi8vd3d3LmNvbG9yLm9yZykvUy9HVFNfUERGQTEvVHlwZS9PdXRwdXRJ\n\t\t\t\t\t\t\t\tbnRlbnQ+Pg1lbmRvYmoNMzcgMCBvYmoNPDwvRGVjb2RlUGFybXNbIG51bGxdL0ZpbHRlclsvRmxh\n\t\t\t\t\t\t\t\tdGVEZWNvZGVdL0xlbmd0aCA3MjcvTiAzPj5zdHJlYW0KeNp8kj9oE1Ecx78XCQVJFLRWKQpvqhmS\n\t\t\t\t\t\t\t\tcCQO1aHSpGkaU2JIU2OLS3r3klx7uTvfXaJ2koKbQ3UUl6o4FUdxcHBwExEq6iKCY7FOBRcp6e/u\n\t\t\t\t\t\t\t\tEhMw+oN3vw/f35/33u8dEIxULUsPMKBpOKKUTbHrS8tsZAdBhBECWVWxrelicd5jysVf9uszJNd/\n\t\t\t\t\t\t\t\tjA2P/9fCgjYEJDoBRus+X3B5xec5l285lkN8w2WlUVWJLeKoKJfSxI+Jj9UHeGWAVW4rxNvElxVL\n\t\t\t\t\t\t\t\tUJ9AmXiurdTdnnvEsqFqBulniSdVW2kSU23gvjsL/5hOHpg6Bxx519eWbWD7OXB6oq9FzgCnKsCr\n\t\t\t\t\t\t\t\tZF/bL3nzkcY+2LVkwpOkUAoIfut09ieAkYfAwYNO5/eTTufgKe3xFXijKy3R7s5Ikt4D/j08G81y\n\t\t\t\t\t\t\t\tgwtNYe57FYVZ03Q+MNLhYf++fj86X6lH/2J/Jp5NAlv0DpWjQP4e8Og7cP4FcPIlUAwD5YsI3EVv\n\t\t\t\t\t\t\t\tOfy2t0/atO4Ird5wWEKWEyzmuiSbpj+Es7TZtFoOFyxnKPEoq+o681JtJrjNRZurcTT1Vu++x2mF\n\t\t\t\t\t\t\t\tuLG4QJ7mFahxO9NlaVWtztDbIE68o/KZjPtfEG/WtNmc+yC03tbE7KLP0gnNyZV9DkwZemG+yzDM\n\t\t\t\t\t\t\t\twlW/J/YsJ1Xq9bfbC5mevlq9UiQ/TvqlNTPv5oxRbWS9Ua74LJXXG+lCl19jCTo4NBj0NcBQQhYp\n\t\t\t\t\t\t\t\txGBBwESNIhplaKRyL0cQ21gbmqmjOMCM4rtUs+vV3ESLqt2qa0gVsBH904HJX+Sf8id5S34m/9gc\n\t\t\t\t\t\t\t\tb0X6kQ1xCAAA//+Kz0w+3/8BaC7IZpi5UFmomyDmJwPtdQTK5jCkA0Vz4X4qRnIpkuvS8iZIIUwC\n\t\t\t\t\t\t\t\t2ZHa7vcNyZepSDbpMiSBTcoG21QGlisGko5ItuEKPaDa4zV7JBB2XWXZEXOZ53gNSljlY/gqFe4r\n\t\t\t\t\t\t\t\tVD5CHbL+VAAAAAD//wMAzbABaA1lbmRzdHJlYW0NZW5kb2JqDTM2IDAgb2JqDTw8L0NyZWF0aW9u\n\t\t\t\t\t\t\t\tRGF0ZShEOjIwMTgwMjEyMTEwNjIxWikvQ3JlYXRvcij+/wBGAGkAcgBlAGYAbwB4KS9Qcm9kdWNl\n\t\t\t\t\t\t\t\tcij+/wBTAG8AbABpAGQAIABQAEQARgAgAEMAcgBlAGEAdABvAHIAIAAgAFwoADkALgAxAC4AMwAw\n\t\t\t\t\t\t\t\tADUAMAAuADEAXCkpPj4NZW5kb2JqDTM1IDAgb2JqDTw8L0RlY29kZVBhcm1zWyBudWxsXS9GaWx0\n\t\t\t\t\t\t\t\tZXJbL0ZsYXRlRGVjb2RlXS9MZW5ndGggMzA+PnN0cmVhbQp42mJgYGBo4H+8wKCjgyH+9z4AAAAA\n\t\t\t\t\t\t\t\t//8DAB4ZBWsNZW5kc3RyZWFtDWVuZG9iag0zNCAwIG9iag08PC9EZWNvZGVQYXJtc1sgbnVsbF0v\n\t\t\t\t\t\t\t\tRmlsdGVyWy9GbGF0ZURlY29kZV0vTGVuZ3RoIDkxPj5zdHJlYW0KeNqkjjcKwEAMBMc555zz/79o\n\t\t\t\t\t\t\t\tFYcLgysLllmGLQQ/T/vwOgYmFjYOrnIePoEwfG0j4qcniqlipph/flBISipqGlo6egZGJrEzC6tw\n\t\t\t\t\t\t\t\tY+fg5LoBAAD//wMAcTMCwA1lbmRzdHJlYW0NZW5kb2JqDTMzIDAgb2JqDTw8L0RlY29kZVBhcm1z\n\t\t\t\t\t\t\t\tWyBudWxsXS9GaWx0ZXJbL0ZsYXRlRGVjb2RlXS9MZW5ndGggMjM4ODgvTGVuZ3RoMSAzMzY3OD4+\n\t\t\t\t\t\t\t\tc3RyZWFtCnjaLJJ9TNVlFMc/5/f8fiJWKBrcNhtcAkFFS5qKxSpfE72FFTWitcVN3uQlb9eLcc00\n\t\t\t\t\t\t\t\tmzbCCYWM5hbTcgpFmS+5aX/U1WXLXCFrMuiFcElmtbKW1QLu02lrZ+e35/v8zsv3fJ8TCTdUkMjz\n\t\t\t\t\t\t\t\tGBav3Rjxj49XpgGvwZTtlaGq+utvKj4GyX6YVFpVF61c9+bd5TA9CiVZ1RXB8saylBsg3Kk5C6v1\n\t\t\t\t\t\t\t\tojYeTVD8heKs6vpIY/7EpOcU/6W4o2792uA/BXMLYcMuxUX1wcbQS94hT/FXiv2hcEWorCn/VcWj\n\t\t\t\t\t\t\t\tMHm31wLefaSr32zamQ72ovol9R/iq+2YV0tmvMYOm2ma/c7/DjPoYC9ZXJU8ThNjNQdZwgO0s5Je\n\t\t\t\t\t\t\t\t3iWJqJzDJZPldDND0nG4F5947GGQxwkzwjAzCTAkU7XOCkKkcoe9ot8ATfakRk1iGYd4X+qkmNv0\n\t\t\t\t\t\t\t\tXOjMkVzt3Gpj+JhpP7MDijoZkSx7hEI9fU8yOWzlFaZSw6d27D+FeJIu2SxXyKCMne58t9nWUsBx\n\t\t\t\t\t\t\t\tLkhAT/cT9QYSj1OnWfvFJzH7rb3MB65QoZVeoEkZHyXm3GqWefvwk81dFBHUv88yKNMkzyy2OXap\n\t\t\t\t\t\t\t\t3aO3Xfzu5DofmwTlkcsqnmAXr6sa/VzimlwnC6RTetT65BdvQLkFaGCT7kWnqtfF25yUPMlzfI5P\n\t\t\t\t\t\t\t\t1fIxi0f0XysHtP8xzktASiUmp8wBb178HnujTbGXrWU2jyrDvZzSHn/IPI3RDuYWE3HT3Ih3+/g2\n\t\t\t\t\t\t\t\tnbBcd+08fcpjSHW/xt8yW+2is8XZaktstx1RLhNJZxEP8hjr2cgzvKGvepqP+E1GnUSN7HXPeJu8\n\t\t\t\t\t\t\t\tq7ZNtc1mqXJfo9HFWnunvtJRTqj165TJ4tcpFkmRPCRV0iodckIGZdCZ4GQ4Tzs/msPmnPnaXeh5\n\t\t\t\t\t\t\t\t9k6tlEqa9s2khGp9gS2qdpvO280ZzkqKZMtcnahf8/90CpzlavudXmfI7DCt7pj3Ynw4/lN81DaT\n\t\t\t\t\t\t\t\toFu2UnVo4C1V4VdJVQ6zpEY2yHfK/GXnPZNkpphMs8AsMQ+bUtNk2s0n5nM37Pa4X3qrvKDXkxCM\n\t\t\t\t\t\t\t\tPxXvswG7XbUQJiivHOYwn3zdn0rdplrlF1ILs5ltNNOi+9LGPnp07g85ywW+4Wd9ASRDOa/T7vW6\n\t\t\t\t\t\t\t\tdTukRVr+BQAA//9MlX9oVWUYx5/v87zvOdKPv2w5LPI2Ww6bbYxlOESFMb2V4lpuOUvNJc67om0F\n\t\t\t\t\t\t\t\tZqFsdMtJ14JC5wZyYYhMMzQKp5mRShZrmj+21OzHkjBXYAyTMHTn9L1C0Pn8dTgc3ud93+/zedCN\n\t\t\t\t\t\t\t\tD3EEx9CPi/g7hxaQIp2us7VS52qjvkU26yk9qyN2rz1vbdZOstZn3ztxzsW+jCR9xvcGA2FRmAwb\n\t\t\t\t\t\t\t\txh2/eWVs6lj92M+RRBOjZ6LO6Eh0Oa6LX2P9hTJNHmalHayymxncQT5gEvvkKzku527VehUKz8Tn\n\t\t\t\t\t\t\t\tYzLTUMxbm415eIwswJOkljyNJWQFGrCatKEdbyCNN/EOttyii3vbgV3oI/txkHyHYfyGP3BVGWI1\n\t\t\t\t\t\t\t\tprlQp2iJzuBOK3WeLtQa0qjNpEVf1jW8oV79RD/VszbeCm2arbBW67Y9dtSG7B+nrtiVuJmuzjW6\n\t\t\t\t\t\t\t\ttDvpTrvz7oaf5Kv8ap/1R4N7gvKgNmgKuoK9wUhwMwzC6rAhXBcOhfG4Qtrqa+57n/z/KQlO4hV/\n\t\t\t\t\t\t\t\tl1urw+yLfGvxHajliQW6yF60d+2MX4VRS+AC3raUvRBvt7l63ZpRp1+gwCb5ClslmyTGbr2o1/Sy\n\t\t\t\t\t\t\t\ty8Mi/R1F7j3s12ar1CC3iB90eS7tR0T0nFToehzWY5a2dPy5VPgshn1WT0vC/aLjZZhd3aE0snyr\n\t\t\t\t\t\t\t\tKc3IYlfub0iK577Lr+V5z9KNmGpDLiuXbLL+hVF00hon8Lh7QJfpDOymccdwn1xBq7Rgi8zBZ/gJ\n\t\t\t\t\t\t\t\tBwTYab2Yr3fwtj7SO/EoRE7Y/Riy26Q+VyMe1DxU66jW2qHglD0C0BJn5HUYSpmd/55IXmIHbNYp\n\t\t\t\t\t\t\t\tdFoVbTKIMsmXrfT9tehQztj+vM8wZz1WLDVSKkt1QCrYG5fIYtkgZXKQGdwopdol6+J2rKT3F9Cf\n\t\t\t\t\t\t\t\tKgfQJCW4nbacwNraOC/u1gK6cDlXvU7/f0PrP4E/5VUk2FmHpcjlvmxyVTTTc/RvhqyUpXzbJu8H\n\t\t\t\t\t\t\t\t+/ygLMQEEZeIskz5j7KMM+dXrj9RZrK+JdLjill1gmZu5R/boqTMIRtkACrrWfMs9nm1S9K8nXET\n\t\t\t\t\t\t\t\td5jijJrPmdgvqXirVPLuauJ0nJHlcU/8rDTKU/FO+ndN/LFMlw5fr3X+IVdOx/bjS86jH5Cht5Ny\n\t\t\t\t\t\t\t\t4V8AAAD//wKWR6qMEgyvgHAd0P12rLsZuliuA8tO+/89/68yiALDQwkYQknAWvQJQy7DO2C4eTAf\n\t\t\t\t\t\t\t\tYDD+58e08b8bcwGwhrrPEPh/+X95Ri6GjP85wJJ3D8NSdlZg2dPAIMe6FJh2u1nSmAyA7tVkEGPU\n\t\t\t\t\t\t\t\tB4rGsM5nvs78kaWAYRSMglEwoAAAAAD//xpFo2AUjFwAAAAA//+kl8tPE0Ecx2db5NFS2iKhL9RZ\n\t\t\t\t\t\t\t\tR1DoVnygvGHT7jYYVOQVdw3ELbTQggo+gsGDMSaEZEXjSa8kXj3MygUuRg/GxNdBb5ooB+PNv0G/\n\t\t\t\t\t\t\t\tuxgsXs1vs/nOzK/zm99sD5/vfz21iBB4KwyKicHDNoI4muBMbL5vBtu0gD1a4dzawS+d4JxuUEwS\n\t\t\t\t\t\t\t\t3JMGTZwGZw0ghhGj8Fg6nPcYeGkcZHQRHjYLCpuG8yogZkF5c+CiBcf93QQP3QaR3YHXuQtCWkaY\n\t\t\t\t\t\t\t\tcLMP4PsfgYweg59W4RGfgNaegnLW4CzWyQZ5Di/00vGNr+A0XoPg3pC3YLF35AP850fyCd7jM/kC\n\t\t\t\t\t\t\t\tNvtKvoGuNsFnP+TzSzeuX7s6P3fl8qXZmUJ+eio3MT46MnBW7u3p7ursaG9rPXmi5fixo0eaDyek\n\t\t\t\t\t\t\t\teFPjoYMN9QfYfpHu27unLhaNhEO1NburgwF/la/S66koLyvdVeJ2CURSWdqgvMHgJQ2sry9hj1kG\n\t\t\t\t\t\t\t\tE5miCYNTTKV35nBqOGl0Z6aMzKl/MuWtTHk7UwjQLtKVkKjKKH+vMLouXBjUoO8rTKf8p6PPOPqh\n\t\t\t\t\t\t\t\to33QoogfUDWcVygXDKry9ELeVA0F21leT4qlcp6ERCyPF9ILxUNs3hJCPYIjXCG1w3KRch8OxaNM\n\t\t\t\t\t\t\t\tUXmEKfYJuLtezWT5uUFNVWKiqCckLqQm2QQnLMn9cSeFpJwyvDTFy5wytGB3Q+5RS3phrqwHyIQR\n\t\t\t\t\t\t\t\tr8yybGZM4+6MbtcIxlFX4aFb38N/h9i8OqUtF6/G3KYaLlB7aJrLlK8OasWrov3WdezBXfVpw0yj\n\t\t\t\t\t\t\t\t8AqusH+YopZrSde4sISC1O7D7mmruxxT7RljhvIKlmR5c8bAh4manAwtis+iUXnj1yaJqtQc0ZjI\n\t\t\t\t\t\t\t\te2NMzyh1Vg0xhxbXIjKN7FxJSFYguHWtVpX/j6j0FYvc9pqjnHRb9Q9t36tgn4idwt+B00mKk2gM\n\t\t\t\t\t\t\t\tPbXZr98AAAD//4xXTWvbQBDdXSmJagwVhOSii8RWpkQJOZUYGZwlwiLFh9aJCivTg/wRSG459ayj\n\t\t\t\t\t\t\t\tWffHrNweZJ/6g1roJWd3dmW56FIqhDXvvZnZ1cxIRg9dJGZdcIMjxRAl59CPJ/kqyoQdAm+reHng\n\t\t\t\t\t\t\t\t29QVLwj6T3/9bDKTHXPo2y9ImWpK9oMGem3LIJBnZ2pAjiLoKOyxr/G7i/MvJZH02XbhAuVDH6G2\n\t\t\t\t\t\t\t\tkzS8hOJ7nmrvsmRoCkDmI15hF02dFWKXQSpJppQftXLySSl5rezDMwpz/B3B1xw6kVZnf762T48H\n\t\t\t\t\t\t\t\tj6HEp/+QHyp9eE+HozF3ByLb1XaYNFCld/fazsKVAAWXpg+Vek9h9O7GXBFwHvgxHTxlt/CowR7l\n\t\t\t\t\t\t\t\tccQNh6SVRRxDp4L5/bzPrABvq1ymf6jnf14eWTDAmsFuLO3stvpNW573n0Hl9reK0pe/Ybt7kmHQ\n\t\t\t\t\t\t\t\txL0GbmyvLQzYsNkhw2QsRKuhxfCyEiKmbiwyMSm3+ZS6NhVrgxtcPA+yuv3ldrN0ZPw1hZt4xOHF\n\t\t\t\t\t\t\t\tOVWKEPMCGX7CJXMKrI2raJnKD0FK5TSgHuUPsEgRoraXZBFYBN0UFC9GBcOL+zFf2wi5i4SvCCZR\n\t\t\t\t\t\t\t\tdpMWb0DjaxchplmiWEUq4CoAn/nwLK2Ipf2dNUMo16qpCY1nJUaas2oOo1lJKs6uFurohRgioJiV\n\t\t\t\t\t\t\t\twmpvEzir4vLK++3O2wLFVsoGwb8G0mJ1FAASzlpXLGQ91ifXBCqiqBUwG/DtYfStj6+xU0DOO02X\n\t\t\t\t\t\t\t\tOC96zFnrTIr6AwAA//90Vs1u00AQnnXiuOWUwIEi57CW5UhoBW0PSLREgJCaKkFUgbYoBoLsuEkR\n\t\t\t\t\t\t\t\thL83yAUJ7dNsKEiVkNrH4EUQJyrxzW6Tpges9Y53/c14d3a+GTNyAiTPTeZzWDnDFgzhe27j+xc7\n\t\t\t\t\t\t\t\t2H/RO7pPsG97IB7xxfkSi1hkgk0vzAKbSwsUsBEkUziLweq4M/V2lJXCSt2Jtw6A4BsV4g5WFcmD\n\t\t\t\t\t\t\t\tlFExRwef8H9BYgHEec8a19V7s5E4H2GAps3h5eGb+bDFNwpqctsRBPFsYzMyb0MzTtUckpvJQGoE\n\t\t\t\t\t\t\t\t8SZH8qZV3uY7A7G3zaTImeMgfRFjooMJ2RuEUQqDXFc0l/kih1q5Mf+S+aAumUTwiz182kt4O2bS\n\t\t\t\t\t\t\t\tlVkqM5BFPO2BqNL4kHKEWh/nTJCu208XuQoi17vQJRxEGpoAGWuUD2Omt+GDdd53ualjaLdnKNQ6\n\t\t\t\t\t\t\t\t1kZgiUkLYJhvmEqjzQLtk4rzIf+GjPgvZOgqJJZrvcPWwq04SgHxEutLOA4RNeCu0PyT088UPFHT\n\t\t\t\t\t\t\t\tV7Xc0IjsPkhZbhTPMxBYVmVL2qPOQ4zghDaPUhhywOWEgdC3rWHeq2k/SC5mbPuoHHjJWrU1z3Rn\n\t\t\t\t\t\t\t\tkMA2PHxWxrt+Fy9584LzscvO7Dw/acO9DxFVIWtL4+2dZ0qn32bVcHZgTg0zlpq2nCL3JOJrd5Hy\n\t\t\t\t\t\t\t\tr8y1x89ehnDsLbC5TuTXfaISBTQ2X1Rv6omf3glVKPBOv5FfPvZOvpfoSsAPPwTdWKr4p3jvUUnc\n\t\t\t\t\t\t\t\tpGXxTrymFVX90zxr7lR/N5+cNekBnqt/0a2vhVMqHwe/jsYkAsjpWNDKqlpVa+tpVItqCTpRL/8D\n\t\t\t\t\t\t\t\tAAD//yxZXYgbVRS+596ZScb8TDKbyUw27Sabn1ncSJJtNlkSY3OjVWzr6uIWsYWwaRTWyrY1bREU\n\t\t\t\t\t\t\t\tZbcPog/SrQ9FoYvNg09WaRO1DduXtqwg9KXgow/uQ4T1JyAiVmw367lpB+bMYZi59/s5d7iHIQ+i\n\t\t\t\t\t\t\t\t7OYDLpP7JCrdFL8XTgwuw2fkB9zYHxeY+MRhetjcCDLVrIfuhpgKxCFJmlMn13TudkklzYgYKwYz\n\t\t\t\t\t\t\t\tujDJXRFtQaNayFr7wkohptrsdq1PKv2eXgS/bhanslCDZvg6flPcuu52EauSy/hzmRyCGskXcCc9\n\t\t\t\t\t\t\t\tYcdjDiUes/PThdyeoBFQTiw2VYfDldQDU6WDhacXVweXn4itzo141IBayk09d3phsS1wz8MKfZWa\n\t\t\t\t\t\t\t\tqOahIe4olVd2v15YlgFQsauMEeqDOdyZnIcW3AUFujD9HVmRDh0RGm7Xyr4yyfQxCpApVI91naPt\n\t\t\t\t\t\t\t\tJSJUE/DGjfF5Km/fp+anONsnOz04ic2Eizw5nG0X4YqLcZWX8iqv5BdUuKReUan6gfvNd8X4zVOp\n\t\t\t\t\t\t\t\tlFACfekQZUgcB00OGT5kCyTDq+l0tXp7GNMZLlixnR7dK59DVq8N51GJfCeyWCAAXTbBPZQFKEVq\n\t\t\t\t\t\t\t\tWE0u0oUID0RZltXZW6zFNpnCbsDX9I7UhZPtnwWK/t/CjnKl/KGcTr3v25jKpsLfUBe+b1UqiAcg\n\t\t\t\t\t\t\t\tDnTvwJiD3+Vz/70if4nKHdjZYtflN4iPJMhPAkPnqBPbBqUjy4a4eDyjXdC4ro4Sm9uU23W7ZW/a\n\t\t\t\t\t\t\t\tku0Xt70L2Lktk1XsyGQSSq7DGNrxqDb6L/pqzX9mhSxCmGfe4S9AIp6IJahCgQFVHMld4d3hsTBT\n\t\t\t\t\t\t\t\tRmwt6bKtkBmiyrjkb5CIMtqAgBezoBuzBEQbEHZi0H1Gg4Qew5DCA0SYHJ6Tk2fDbTnadfz27ZIs\n\t\t\t\t\t\t\t\te4yu49fOkseDzFOVocHT+gyWnBn0ByhaMmHP+Mxgbk9hpuDHqnxYl/TAx2eO1Nfeu/jRj43bZ49v\n\t\t\t\t\t\t\t\tPFtsFs6MpbOJ4uOlffnnp+nnW/DSy9VL3w+u/DG4duGXW/cGW+0LR099BcWti6ez40/ND9aEq3/i\n\t\t\t\t\t\t\t\toldQ0yDpDF0NcKtutaxNSyIWt+jb2NVSb3UEjkEV13mLxHDFi9yJeRwH+JdocIwE8Q6Bv7gXNI2q\n\t\t\t\t\t\t\t\tFGTV6aaMrMM9fHw/171ejfvzWW1ZO6+1NEkLmes0Ab1H8qfKs75+738AAAD//0SXXWhURxiGZ+b8\n\t\t\t\t\t\t\t\tzJ7snt2zO7t7zuxfzpqcJZ61mLhJmoVjPFhQFIqXqdol6VaIkEXZoC2EBo0oNkiatFRRbGtqqcUf\n\t\t\t\t\t\t\t\tsPmxrhH0RrRCIDe9aKBisLnxIuiFAYNJ6Myu1puPgZmb732/95kZzanOQ5AHNA+Wl1bhcjbb0gxY\n\t\t\t\t\t\t\t\tTAvxaShhpa4iPJssKT4u1BY+JMTKBcPRqB5Jt3WiNi4O1+Yl3J0mzqfrqKcjWoetmLVdfPTzm9P9\n\t\t\t\t\t\t\t\tHSlkWSjZMoD++d42U/Ws+02s++us+xQ8W+3+BDa8ed1IbG01XFYoL4FUNLoRO3gXvopl19wv7vPs\n\t\t\t\t\t\t\t\t1/cZfZ4jwSOhH7w/+i8Eb3hv+B9Lj/U/jXl93lgwV8QVPRKBSZFK8QiNUj1pYEX3Gt5kK91Jh/VR\n\t\t\t\t\t\t\t\tExsUIT1GfVRWBYokmX3OI2FMRLUCD7qK4oZ9244rUKkIOdenSbFRCi/RmxTRGSHHJB2ZgsiXqsAR\n\t\t\t\t\t\t\t\tVwXysz2kmxwmx4hIKhC7hL/4YsB0zeOm0GOOm8ikd+EKy60KXTfcjQ6jY2gU3Udz6Cl6wZ6JtH4G\n\t\t\t\t\t\t\t\tfvM+C4tOLQ2Fj1lENR7SpbVC2dm2Vp6Q+XPq9qgC7ytzCgKF8t7sIodp1bNQPo+02pHpQTpC2f5e\n\t\t\t\t\t\t\t\tv3NakwYf+Fm8Ybm/wLxkAQDZ+G1V1VIppCkMbNMlTUKULSZLyFfLQCi/OZjfzCkgpNsAaGtltsq4\n\t\t\t\t\t\t\t\tob3GYSxjhNNb2ts/FK53ry6wX53506EDlzIWnbv465Pm3VdWOmGx1LUjBqX1NxbcDs9fHbpytHzn\n\t\t\t\t\t\t\t\t4V9jvb2Xb62/7NBaPmCcAp8wnkww9w3QBLNV/+2jyhd1X/pPKPPWc0uWBTgoDIgD0VO66HiaZElo\n\t\t\t\t\t\t\t\toE1UFsxuD/RU4Ed/mBmYyQQYvkemDCBxFE0FVMjG3gUNHETeGLBdG7l2jz1uL9iiTWdgJ4jzLUA0\n\t\t\t\t\t\t\t\tYpJm4pIxMk4woRvfA2mVXVaLb4n0yuFMcpaYJIWlfqZ19fZ6K7NXjstc5iqxNiUsJZRMpBJIDlpq\n\t\t\t\t\t\t\t\txlIairBeixdB2s9WjXWZIkyEzCLY4GMFvCNS1h4aqkVswpOp4OVbJY8nYMAK/nu6ZEgBBql/J0sB\n\t\t\t\t\t\t\t\t9X9fOJ9gxC/gd15wPgVbQ43tOShHwtEqqGqGCedO/vZLX+PYt2dme7+aPfPZve9g4HXf2mxo547c\n\t\t\t\t\t\t\t\trq7hrwczXdJBS91z+dHw5wu/X/sPAAD//0yXW2gUVxjHzzdzZvY2s+4lu+PusmoiO9NmEzdmMsGo\n\t\t\t\t\t\t\t\tyDFItbhUQVGpStc8RI0raiqplwhrmuKdDdiKJSArJJY0CJpIssagCA30Rh/6UKVPq8TaLaRPwQfB\n\t\t\t\t\t\t\t\txO/MxtZhZs4w8zBwvu93/r9z+fs9oxAfg01zu95sOLct86w1NXB9+PUyvkql56fFQSmNGVfidbpP\n\t\t\t\t\t\t\t\t6HxpNBhbJxXnSyyJDxEnSGKtq5UwNaMW1J/hJ+EpPBVKKpYAPEBUpoqCRDF/rrKoKFSJokBFVWIb\n\t\t\t\t\t\t\t\tLek5yDjIzwG3PkX4dqzgAU9EkSaEv4kovGQKoT7K6FZaoBKdFP4iykKdfK/2zkzbxMxyRpK+mWQl\n\t\t\t\t\t\t\t\tzc55z/xQKRBzHZeOy71Sr0ztKtkMdOK8x8bcbkKR3aJz6UgWf8ynN2C3PKY7Rl81LvEO4zfhydza\n\t\t\t\t\t\t\t\to/DN3KVjDdvNuJTWXz+kU7EVGQ/S3I3dexG7N0J0YsKA3b8TmJsuc6lZaxwxT9XkPDklF83FehI5\n\t\t\t\t\t\t\t\t/aI5tHgw+l1iVLkXHdcfGFPuKc8TNewgbpBVIeoywqoWTagJ72a4DF+qX3mHiHcNWQ2bcc/58Qef\n\t\t\t\t\t\t\t\twW5jj9lBOuCgsF/vMA6Yp6Hb6KrrNvM0L+UcOWePvyeQr8qHr9Nrzq/91wL94Vv6beO2WaRjzrLn\n\t\t\t\t\t\t\t\tH6XsLRvlxg8dqstYTVpgVaO0wUmUqEHtm0+zc1yW6vkQVOPrXbAI84bZVwM++6Cd+YjFLIFZGatg\n\t\t\t\t\t\t\t\tlSxqLZ/EDyISVYtEuRs0pvVpohZpmoB/ofxftM/OcJJmpmcr6c7xAe5/iExjMrWkxh+mzlCiWlqO\n\t\t\t\t\t\t\t\tUe6It0FdVW0bWRFoaIMaiim+hEd5MlzfRlL++go4C+ScxQPBIXh2xsajCjFoUEZgXtzLylKwvuh4\n\t\t\t\t\t\t\t\tNpINviNHa+Hg6P/LpCOsVYzL4O8SzQvQcISCMh9sjgwdLtzc++vQwI/Z4Tst6T/vPs7uOAkrT7Cu\n\t\t\t\t\t\t\t\t9vactbJ529Yrh7M9+kZhuLewo/fRSGf6xqHzn7Qfy/9yct/nn979I3tmy8EvurY0HUjNvfxoMHO2\n\t\t\t\t\t\t\t\t/9TOTS0d3ELRGvvEO0iURnbbxi9GipBgcXV/c1+kgHLDiEPBJWwRC6FMNvWFCiEhNAkJXC1/R2m2\n\t\t\t\t\t\t\t\t+3/WzgdbmbiojisBmQQ8uIdAh/Obfu6V8J5XBt93zGpulnjVpda38lF8CwAA//88mV9o20Ycx3V3\n\t\t\t\t\t\t\t\tsmVnSSUntRxLjhzLp0hBnuX4pCwVZnXcP5R0bfMwb01YqUv252GBNU5Zu3YMM7bSDEpHB4EEWjay\n\t\t\t\t\t\t\t\twRh5KEndet0Yo497GPRlpH3pxuhK1/lt7GEjdD/ZpQ/3+96dng7u+/19Dl3rwmZ+cnug0p1V4Jbr\n\t\t\t\t\t\t\t\t8Bz7A5yvcTY3gX/u3PLCLDerLXEXtCW2olwx15V185Hyp/nQ6Z3gzprvsdXiCvuKfsO2lC1zy+rh\n\t\t\t\t\t\t\t\t/RZ+uCm+Ne63nvy4mdLdQMu/xxMuK2dyUJKaWyxnLSjqkLuX7jWWlLvoF3qPPTAEniKjryiReFhV\n\t\t\t\t\t\t\t\tdmoyla14IV/cR6fcV9HR5Ky5jGMSJ/lVNEtr/km/4X/uR5SCUpzmiCQoVLOSDh/GREtoR9gFukrv\n\t\t\t\t\t\t\t\tMmHYL/vT/hyeI7VQLVwTaoV3w4vKonpSO0UXzbPWR+Hz6nntEmv4Pzn3nMf0X5qciYhpNZrRpbQq\n\t\t\t\t\t\t\t\tZ7KMcoTPcZ6dpkQfncgxktctz4vKo1YiIeO8FYlEI59Cb4JzbvheRyqBNDZ3T7rBcnPP/o6Wd8L+\n\t\t\t\t\t\t\t\tS8dTqEcrpHCqytvpidxY8EHa5/WXIfMwB+VXnvDBZk9fzOV4NMwjCNI7ZSMXHhjA1VwvQB/Uvj6o\n\t\t\t\t\t\t\t\tuiTuECVcFYeDpXh1l/89usNluBNoEO6MffhvG2ivDe4BprCPLeyBLB8jzz9SO9KesaVSqQS2rbc7\n\t\t\t\t\t\t\t\tFqtDskrtYABeOO0OasDoNsGADsHEk46btQY1JChqUsXh8Ag1sMFGrMERhhxhjKGsNsKIi8YYMdVR\n\t\t\t\t\t\t\t\thgqhPOOMIZ1xWpF4DLJcKtmlZ67utkRw9rEFVK/XufrCM8sH/4TgzaR7LeGv5ryuR2W7JfyzMS+P\n\t\t\t\t\t\t\t\tAsqDxIFPr8/LOJprCdsAqvmW8BjkKbZGgiSw7WAEfbSTB90MCGczHiu+MN4h2GzWywD6B/uGHIRA\n\t\t\t\t\t\t\t\tNxiE2NPG2kEhsnFx/4nG/QfbDVY1EkPmIYanvpxbvvr+9jnj+K7Lnx2+fev16VMLzR9euX3pxaMq\n\t\t\t\t\t\t\t\tvq5VXvv4jW+rxni2TuY/yOSMQXrz9JtfiIKw+8NDp7+W/3tHXTtz5PLLfAi67dST30Ji6G2Oou6L\n\t\t\t\t\t\t\t\tshLVHORghzjpZXFFWxPX+m+IN/ufi2hwAECkc/Ez8kXyiXyFLCvr5DsS7SU7eDx0gMyQkBORYlSF\n\t\t\t\t\t\t\t\txhpqYhWhW1yLHLwxvBqyUgS18P1mzL4mIalFJpv/AwAA//9kWE9IFFEYn/dGN3d212b/ueu+sXnz\n\t\t\t\t\t\t\t\tdleodXdHXfXi7o6QTR0CISOCBEPJQA/uHoyCbkLkIYMI6qDZITAQhEhbtcBrhWQQBFFoHqSDCxGL\n\t\t\t\t\t\t\t\th9C1780aRc3M92ben4GZ9/2+3/t+b9L1yIVdBTFpJH12PAe6ErXIc/NupLqzbuwOGQBoeycNoqNB\n\t\t\t\t\t\t\t\tNYiDFtyCZ6KDAxbRx/rylorbzeeA8nNAS/u5Ul9pO1vcKRWRzFeB1xZcqJ/YnKAKGh2NdVEbsccF\n\t\t\t\t\t\t\t\tpx+KmvrqOJICrjhn+EMkVOg9D7mRUUupIssKxj4lIirV4NjnI4roc0HG9GzEZ6+QfNZdSVwPc1dv\n\t\t\t\t\t\t\t\t2HIW9vs8lnoL2KrClLO9J8LFHfd4R9V7Vc1sP7716eZY8cH4m+vqlfL3lfL80sQiyr66N3nCQ3wh\n\t\t\t\t\t\t\t\tR/VwufXd4u3yh41C+cfd3KxvYfbn8t5b1Ltyus5LdPAYKLHqKWDJbrRc2b2xEnXT4HMkRAsHuws8\n\t\t\t\t\t\t\t\tUKOpwsGe4eGPqRDvSlmRm/LCAMPLm72IOfmdWbPLCgffQH3IvM4HslCXLG4JDWBNYEmwhOCE0g6W\n\t\t\t\t\t\t\t\tBesUtwxHWohEEmmcUCQsZJNJntasycXizo5VoCSf2dW1GL9/ia1y3W/kRs0Zc93cNKu85rRitPfA\n\t\t\t\t\t\t\t\tI/aoxKExphJFYymVJDTWrZKMxrBKJC3sVQnRwlGVxLVwm0rSWhhmIRyJkEw67XBIOBGPKwqp8XgZ\n\t\t\t\t\t\t\t\tNhjaYIgynY2yGbbONpmNFTA1QrLZb66aIjWR2R1lbT2p/hROTZ+6/DkYOyuX8nwbS87lS325fKe1\n\t\t\t\t\t\t\t\toSXDWSnhn6DpN19Yqx/qu0gWsgD9TCfE++JIQ1NSJCEr9CNC4UjRcI3A10kZLOF4DakRsnBwvMRi\n\t\t\t\t\t\t\t\tgRa4OGC0Q3kPDODnGt/md/sCPKNu9f8mCO2/ln9fQU/wmEuiMV3HJ3U9RgMuSW3S9f2X+rnG+v0J\n\t\t\t\t\t\t\t\tq6t5f0XvbQxWenA3+AAi6iMav6rVe4LRaEDuGty7P1SpNNMbaKo88KcmDv81DLB3HFboF4A9Kny1\n\t\t\t\t\t\t\t\t2ILAeoioQJHBLuAhfA1P0If0KV2iTsQK6I7RWjvYfh5fOobtKhE1VtdB3GkmqeQXAAAA//9cm89L\n\t\t\t\t\t\t\t\tFGEcxt/3XdeZXWN3UndHd37v7I9xx17NdcFVcKdTiYhSUrGwhBhh7B5kWRErSqg/QIiyQ1hBiAch\n\t\t\t\t\t\t\t\tU6zFLh4iopN0Cd1r1KEuwtKltN73HSvqsrMMzFw+z/f7PM8LIximrumgGzjE9j/LxwUkm8jDg1VY\n\t\t\t\t\t\t\t\tQlX02ukKi8xuRKZFkSlUjPp8fqZQP7vrZ7L2LxkTBXcrULcRDuilXmdVlvD7WMhmXWplQk3aBMDT\n\t\t\t\t\t\t\t\tLATZ7haQR65y9fUS8TtKzuMu7Zzd44ZzKHr+W9WhxBEmwoTs6ob7RuX7p/T5eEimS/lK6YIuHOu5\n\t\t\t\t\t\t\t\tPfnw5hSc5Q4X4n16xVO8pXfG4zDlzP1YPaeFWvEMbaM06dj0IwPQCZ+7LQcTz73bn+nCM20VqSLf\n\t\t\t\t\t\t\t\tsKbxPZmba3sZ27JqUk3eizW2JwVsJbLxbHLA6sb55NXkNJ7HTW8AjMgd8rD8ob0meVcs+C62K+7F\n\t\t\t\t\t\t\t\tdkke+hJrlB1TsfiAJvFGFGoSZ5gkXoQMEyh6Z0qxcuaoiUyTC6Us4kOI5/hmEBFIqnEi0xFvZAjT\n\t\t\t\t\t\t\t\tLDCYywAMHbyG0SO8jXewB3dCBggyFJABgtFggPEJsJsBxiewdAJX4eyGMTF5FAkIpQOXFRk2+1th\n\t\t\t\t\t\t\t\thOaChJsLEjQXsKMhNwUUSBfONrsEyT6XYx2i3Ba3Eh0iMfyYTH6S7ak0jEtm+vcqJxV3aHzOEdSo\n\t\t\t\t\t\t\t\toZkDDVFVHwCGrgFIZ9kGthvjy7BMmjA9cFVMYuibJUXhQ6kqt79eCrUSOWyWQsjL+5gweN49hLL/\n\t\t\t\t\t\t\t\tdGKqgX/Hkjl5+CjyJsN//ZuDT+XESO/BK6KTVonoBO6/eL9Qe3uyfCpzVplaPHNnPD2Grh/OzGtE\n\t\t\t\t\t\t\t\tJ31axVOi/4bXry3vBE77/U/mLy4Ot9BePEg0s0Y1A1U2e/15mEd5Ja8WYREVlaLKdxk5Y9R44F2U\n\t\t\t\t\t\t\t\tVrzLEoegooY1STCiZPqChsm1mUBDQpA3qmjbafFBGzhiINccJDIcA89oJUaWE+F9jKyPQfQxsr6o\n\t\t\t\t\t\t\t\tGNZslUohQJ8AqqBeUh+rDeoWskD451eniXIPM+Jh8vYN/XKBtgbbrhcoXpWk0qYMfcF6U7DXtn8B\n\t\t\t\t\t\t\t\tAAD//1xYzU8TQRSf2S7dbmco222oG9l215YlwFoK7tYypbiTNGgqJJCIX4kEblyM2h68IU38SJSL\n\t\t\t\t\t\t\t\t/4Lx4s2EIGnCQTRcPHDj4EXDgXgj4UC8KNY3i8bE7O683Zm3u3kf837vvdvugVY93aqwzlXESQmu\n\t\t\t\t\t\t\t\tv0vfQhcQQRdrnwSWY5GNbUrZrBazDNi07+5aUreWDM2j/TWP2LfeHzAW3cH8f2YKY6aST8mvegZI\n\t\t\t\t\t\t\t\tylqef983MFs8+TB6oz/9enHQv6oMaF0zvz7O91fKP45XrGHH8e2mTBOpu3eg8JRQvXMYeR55iy6g\n\t\t\t\t\t\t\t\tycjaP+zldhCCb8CF3nr7lBEnRghAcKg7B1Gv3TniRNel615asMDz1w2hMLg55r1Cz17I6zElpEoh\n\t\t\t\t\t\t\t\t3Ha2Cq9AApuVh86P+pSr8FHKMxkxJmGJtjt7PCuYKJVXDWyEs0bIYWhOVqmel1ERSrYd110I4cd1\n\t\t\t\t\t\t\t\td4snonu35+4COu+GU+729hfX3dH2dgEcAKHvE/OFJ+nXLmLdtlgreKNuxiO6q6+gFe8ZWiNrpWhG\n\t\t\t\t\t\t\t\tT1e0oBXIqjnTNROdsqdyMxUePM/E4gnFRrk6no7XSb00Xa5V6pM3yTJ5qj6JPyE98+nHackKFgNp\n\t\t\t\t\t\t\t\tKeYhvzoyVPC3cB+iiHa2N1VGBwmjQvazlZJG56jEYViiETskD6lMq0a785kPETZrLBr3jUjRWIUM\n\t\t\t\t\t\t\t\t8ZEFmSVIPFrlVQnEflBoFaRCCfTWjlzmSZmMbBdwYclBXjelvg+K/wkWiF73tvAy6keO+GOCIcdy\n\t\t\t\t\t\t\t\tWs5LR+bOkSO1HOxogsnZkmpQ6PaC91qst42XebavyMYUnmC2Mqe0FCj/8JGC5xSs1C7V7p12IxrN\n\t\t\t\t\t\t\t\tpis6Ei5gkoh04O9hPgHH9wVIMY5PDha0w0Zw2BTlUZIJHtctnnaT1iMUo4XbIggKc4XR70ppwsx3\n\t\t\t\t\t\t\t\tpcrjF8elqBqLx6TouZydk6IlwmyUzKRMpKd6rG4T5/ITXcxE4zHfxiWf6KZm4kQOhkq0aooSR4RC\n\t\t\t\t\t\t\t\tDPWXON3hYVEE4SZuoAZuQFys3VoPdMhxID6iZu3OrY0xkBQ8cn9dC8lmgpVtkB1SxnUqyD4nhBk2\n\t\t\t\t\t\t\t\tYWfgMoW3nyUsDqYsDwoaBxoHqgJVmfj/bwAAAP//XFlLaBNBGJ7ZZGezzcZsNkm7TXeTnaYJ1D7S\n\t\t\t\t\t\t\t\t1tgmfWgwxUrRttI3GBqqVJAKfUDxcSlWERVrRNCLUAXx4EFrTUsUDxUrxRf02Ft7iFDFQg8eBNE6\n\t\t\t\t\t\t\t\tM40iwi47u+wehv2+7//+//v36AfUTamq2SuFM8LG/LAkVXllskoPk/9ZmrHY0sNVVnNjxiLODZut\n\t\t\t\t\t\t\t\tOfvNtNixU6kDKJfd1dXW1u10UMhd4Pqb51EX5abhAbPhbibRDiTkJi9cy/WS2qaB897S9197O/cH\n\t\t\t\t\t\t\t\tglwoGAjNzpxra9CUvAK7LLkbR4aq6+Gd8vbmnsjhi6cdhRdOxaubz/SUXBkqLi6vr6wJV/SkSn0H\n\t\t\t\t\t\t\t\tyi79ejvV4BJsjZHbzbdgorGwPBk9NEDV++B21tRKtANzxSzNspjhH/XgPIiVTcQUFzEFQPkBuygk\n\t\t\t\t\t\t\t\t8QjmMKEDs/RYJ3xPO11cN1m8W6B6olebCMEJecsS+5c2md/+uERDWMVPSTS+uyIM/HFborbA1stz\n\t\t\t\t\t\t\t\tmrPL3Ml3oi6hr6hPE07yE/wkmMTpojfGirEOPvFiHWyBPWq3NuBPqkltQh3TrirTzpQjpT6ED7gn\n\t\t\t\t\t\t\t\t/mfwFVwWlgs/W7LaF+MbVBHXqvQq13zXjEn/ll9wGPDl9jowyOkjcAE6oPSrkjFM4knMASxjA3dg\n\t\t\t\t\t\t\t\tuq8Uvodn8SJewet4C9vwkL5mh/bl/IAokO2tzrmi9BKLKFGySSv+4JNgu3RD4qSQzHxjEoyAFJgF\n\t\t\t\t\t\t\t\ti2AdiPQBBx6Ne6Y8XIcHznigJwOlmLKFIEAyMlAViiEexYvjz7mbO9NC2jsmxkZ/jiayo2N0skWs\n\t\t\t\t\t\t\t\t3+bmKCNuVsnNdPM69eP6uG66pUOagBAeRiIRGKEWIkEcBCEspQeQ1WgRQf2CM8rLchTSMidTXiw+\n\t\t\t\t\t\t\t\tlaO5iUJ/P02g7XYRY5OYz+JAUTDpGYtGnKf1/ygEEYxye8NgT82fuWEuCmSIJSA2tQZWp+5uQJi+\n\t\t\t\t\t\t\t\t/Li6vMHrsPr9+040Hb1/ZbCtLgyPzb+GaG0V7rpxJBgKuid83tbB+w9+xCvPUvfZvJ018/w0KfsV\n\t\t\t\t\t\t\t\t3Ng/dSwYilEcliKVQdCyA0cGTWDo+XmsulsNWrQcFH0G6x8N9jZ5+j3GAGyo9AtDe0HbRyrq5E73\n\t\t\t\t\t\t\t\tKaRWx2RnTNxFOk/XbwAAAP//TFtNaBNBFJ79yc42W5NsmmybNulOqflpNs0opGigktS0phRKxRop\n\t\t\t\t\t\t\t\tlNWAoB56aHtTCubsSTwUL9LqRfTSokKrp4DWn0LAU/US8CpS6FEoWt+bpGog+4bdnZ152e9974+Q\n\t\t\t\t\t\t\t\tOLzmTEYR3qnQdPY5fKW2N2qCL6oLKGPC2H4Tl4JdIUKYoSg4NboYk4qxakyO2QY8xrDAaLSKpSJb\n\t\t\t\t\t\t\t\tww5DKJnq98NRxiuM8eyQuEcop1U0jWdFRtZwWokZpqkO1jebrtsoYPWp0IT1ISblR/WX5XKOo0Gd\n\t\t\t\t\t\t\t\td7K5Kl9RVzz31Brf4HVOi7zGZcKtdNipeCr6ZWeV0kkqMX7GW/Ze8T5Un6bXOa3zA0dmkCkNvAHb\n\t\t\t\t\t\t\t\tMIAxJ0bZDLvKbngX2B22RtbYc/qavk8bCb0r2TkW7O8aD8eS1li0PzZuwzRDzYTFr2ZnpEzGVgyb\n\t\t\t\t\t\t\t\tGAOdDJ1RMFy1ataGpdjWfUu2fgxd1LDsl8rmUG6VR7RStnS3nSNN7/9adiG0wg/mSMugstmdD4ge\n\t\t\t\t\t\t\t\tLGkJ4W16E46qJ+MJfYgRR4VDisaZlPZk2HHVBJtJZ9EeMKCWlpdc4HJg8hCxjY74Nv0uEJ7Z1j3/\n\t\t\t\t\t\t\t\tEC7a/XGtxcxBYOZ2kJxsNXcB2t2ewREzK//FuvyhVJta/fbz7e0ZP+vpdU5I5rB/wOobNn4fZLXR\n\t\t\t\t\t\t\t\t63xuYn5zYf7mhXOHOztSefrZo8newODiYfNxOWoOLn2Svo4v5mdufdz9gsjH3tKssklCJKa8+g/5\n\t\t\t\t\t\t\t\tKd0KhUknFjOJTwifoGFf+FSRSJioyoQE8P95R3XBwDgomqYJI2L0xU1KaIDKFC/jbCo4G+6j6vbR\n\t\t\t\t\t\t\t\tnpgBg90ttBr1tGEIusGorLAv0Oe6roB/06nzRh0JvIX6WLhG1oHklONcWWyitaKOixRPItQDlNFN\n\t\t\t\t\t\t\t\tqhBahWBknar0gfpEfaEquBQF1dBiEwj7UMjuBz1xCNqCeaC2IHwWnvL57P6WNUA8WG+Zx+cG7NV9\n\t\t\t\t\t\t\t\t57oQYYvGJJgH7K8YCV7rcSNVUg3tKZ4Ii4Lrj+atYjRvi+JxaSqn2+h4bAHFVE6cnk1nc31apGPu\n\t\t\t\t\t\t\t\tDwAAAP//VFpfSBRBGJ+ZvZuZvTvn9vZuT6/N899deJ6H9yRuRW4oZUUo5YNapqTvpvgQQViUyJWg\n\t\t\t\t\t\t\t\t9JQ+eA8ZhL2IaZ29ZBAWpSDUgwqhPUSQCEbSm9TMrFLtsjt8O8zO3+/7/b5vJngl3JHfVnDpEIGK\n\t\t\t\t\t\t\t\tiolKfW7jDM6gYTzku6cNFj5CTwvmgp/Qmn9d20U/laDeSTrpNd67jPqavPPvEI6fJO8uUlShT5jr\n\t\t\t\t\t\t\t\t09lq9RQ6rTYWNaNm9SrqQ5lgJjIWnFQnPTk6p0573qJvaNO36wnRFQIBWSGoV6Ri7Eb5oE0TTG66\n\t\t\t\t\t\t\t\tQiAdNkRTg7qldxgDRtbYMFyGYX4UcfDfKxyWXIL2BEWyajfolhjjyyYUM0KWaLjctPxh2BMeCI+E\n\t\t\t\t\t\t\t\tlfBuKHSLwjQdpShNR+gGVTRqU94TOk03KaZTzHCBjFhXSqWtp5nNmpgCmMaKmbLDIBMtUflYsrpo\n\t\t\t\t\t\t\t\t3TlHgzmtPL/Xe1zjpLGdJ9ucO8qNmT6xpJJ9HEAEf+sxOH9LimNZu+0c0OQRKFBTA3rbYV3LLAYQ\n\t\t\t\t\t\t\t\tod5WSTjFJVnePCC8Nm+Z5bNTVh5/qMCxcos4ibAlM6YjmU7evuRxJI8jqVKymWoZWsSKFAesPP5I\n\t\t\t\t\t\t\t\tk/Ef82sVtoIQb8AAOfKV+9uGN2DKWGuAeF1yr9T7FxcPqF4Q5+/HVx2E1AVCxkukv1eK12F391Db\n\t\t\t\t\t\t\t\tYKrIeP/w8daP5+OLe0PwiVuLdFVfvIOOLfX3d10PZb5AuLYFyYepoy2xGvu2YGeNACg33MMgiU7+\n\t\t\t\t\t\t\t\tYxXiKYmHKVvAWkr6eCb3SBmGlCUglTEPnc/Rd1sXis10aTKc4Ad+6cRKbQ+NxaP5APgT/hw0Z3RM\n\t\t\t\t\t\t\t\tQVXt9oK2ULu8rW07oMchb0F7oy2KW5yOSh7A3jzwyzKAF7ULEzjG/0QTUCowxEJzIRIGQDZj1fZK\n\t\t\t\t\t\t\t\tLZbfubz+QmQxlqo8gLjP4sWrX152NvJM+8T94jFj7IhSr9T7GiKDyqDPPe6CVamBklE8SrI0q05o\n\t\t\t\t\t\t\t\tE4HplKphbt86KjqS6DBls1H6oBTORklOoXZRWTQbfRVF0UAsng+TTdwRS1ck9ACmxKNxxcjBC89G\n\t\t\t\t\t\t\t\tuPOVQ79mYEUyBzU77w8AAAD//2xbT0zTYBTv1w/GGGPr/nUrzI2adRQ2oMv+IDhpA7hgkTCEA9IQ\n\t\t\t\t\t\t\t\tiRdDggGWQLxJgjFBDyMmaLiIJzwScOgk4c8VLxAPXozogXARjDGG29T3dYtePGzvbX1fu7bvfb/v\n\t\t\t\t\t\t\t\t93ud2IDsVhvzxGpFAZLkr8bGYrptby9aWS7aQES3CuvlY4sWRErjlmXKsmc5tBgsXHgLG3BFqftb\n\t\t\t\t\t\t\t\tTOa+M0h5nWUlwZyMHmd0LSGZLGSScgFYVktJS7IL9U42KLiCAit6qXpnwItKqEagjHQCIEHX3YF8\n\t\t\t\t\t\t\t\txalSOeHz2eAe2oCWfH090WAz/NWGTEXxIQqv/6hDCSI7xKPAQnQaUpSH9KUckA9X1IVWvULHYOFT\n\t\t\t\t\t\t\t\tg9jJbWwMb06PD7fHfO6o6vcHmxXvKb5eWJ27GA4ExO7b9EhPcmFnprvpki/O33U4Inc+dPYAJFz5\n\t\t\t\t\t\t\t\tlcIfgVlcpq5RN3Gh+GyTnU0/Cy4nMNXEaPRs4+wgTTUamg03HteVya392mTrTHBKI/38efcDTzb+\n\t\t\t\t\t\t\t\tqGP+arb3Yf+Se8mz3J8ve1uec+c8+7H93j3tUPuifddqa+pcUSbuTPi18pdGNSHXUixO8GotxXX9\n\t\t\t\t\t\t\t\t+59RpcPhrDQCcbYLROOwA+4J5DY6zTKxSpW9Sl4R1oRdAQt59HxzODTHIyA4R0o1ibWv8Gv8Lo/5\n\t\t\t\t\t\t\t\t0hjdwhAeYhXPoopU8qyUqsBXapiUnJp2ImceGRXHpBHdN4Jjg90Y44blLtSVxxHFzKmmFg6luTmO\n\t\t\t\t\t\t\t\t5rbp95QBirKPSsImk6GCG0AD4bC1bwdLgK8+eG+j+rCk+BkJTUpZaUXCkofguWQmpSTF25rx3BAa\n\t\t\t\t\t\t\t\tIudWDVUOzrsc49SdI11PGCLk11QNBTgk+EUk6rnrrollRdQvTol74qFYJlpIJGz6mSNTBTjfFDuZ\n\t\t\t\t\t\t\t\taMSZOk3SFO0FXPNyjQz1VpljmiX7NIVSuhKRitSxyMpOsQcALvnfPxSbrruZyUKE1X8jm6e3Fcey\n\t\t\t\t\t\t\t\tjOSIhNOYTmNEYQbTmFxK7kJMt7BXTA5Plu/EeUPOEY+PaFvoHsUj0/qCJxQ6J+UE2HGWKejOWShz\n\t\t\t\t\t\t\t\tzISmz/UPoWLTdpo5hjXlaAZmshIIFU4IJMnMWYb06UbBkHgIBlTKHfCfeRpwKfMHAAD//0xaS08T\n\t\t\t\t\t\t\t\tURSe28d0OgJ9BOkFprYTmKnQDqV0pgwvGQooaXkLFEl4RFgZEoGFJmyEGKNLoztj1I0rVyZV2bDA\n\t\t\t\t\t\t\t\tNO7qXyDuNSFqiFGinntaoDO5k3PP7dxm2nvu+b4z389vABajzKMcKuDZYgFbVpedKcxO6x7b2Vz3\n\t\t\t\t\t\t\t\tcLMhBQOUOFWlI5FM6Ak7P6BOqG1KqzqnzEhE6rkkcVljLMylSX+Y63P2S9ykNiZx09GZMBmiVyUy\n\t\t\t\t\t\t\t\tG8lJZC4X7G6Ejzf2cKOJTJhkM0bKsg2GWX3V0SuR8fiUxF1vmQpzw4FBqaQAwTLJ+eX83XFJ5bmL\n\t\t\t\t\t\t\t\tB9li4hCyianUEtu8sEYNr5/VS47e+pEFwnYi1O65ji1lHZYqLNhlgUwIpF8gcYGEBOIRiN8u8FYq\n\t\t\t\t\t\t\t\tE+Ma6wf3XIfv1uvrM3wvWrxrKuZhAt5SPsSfp8FbXF5aLB/RCtFJANIiigwhTTaVKSRfkmyx80zM\n\t\t\t\t\t\t\t\txUomcOJdhAlSAmdSFL6yB31jZqH46v7Kx2iNnXfaPdG7ZuH10LVYSG6XNj73Ld6+9fzPwYPsBZ/h\n\t\t\t\t\t\t\t\tWtajXeRiZm1Inxy9OZz8+yve3r22n3+T1J99IeMtT288KlhO3h1oEJ38yMbO+1q1q9YXdjnsTnf1\n\t\t\t\t\t\t\t\txvTm6pNcR4pSJe1eDSVCTUu2h3e2X+TSW9svF9Inu8l5pb35yr0Rva7OATCGq4bM/QO4bMq2X5G5\n\t\t\t\t\t\t\t\tg6bFtgev6BMxTYu0mfUpFqgpUFWMPMoqV8hvaQ0LBaqyXB5iDlXWjYhGZEdVlW1WxjlkjbI5tL1/\n\t\t\t\t\t\t\t\tv/PMC8Zxng1op5EMxlfLg5AB59MIcNABEYCAH5oC7TK0CKcDLPAYlhvuNVJcxBeMOVwQPPE4Y8L4\n\t\t\t\t\t\t\t\t5hT+2zIbRijuLXzq8BaiJU8R6HGhghnP634W+AZe4RsjOkzKpvRFRAQHIgICEUGDSNFF0UXRRanZ\n\t\t\t\t\t\t\t\tSWR0y+iW0S3D0xzhngbG9zwbAOPkAxvTNLOzjCkQUpTtIoOS8BRAooulqiWTv1lx02o1RHMF2IBH\n\t\t\t\t\t\t\t\t8ag75mPzPwAAAP//TJtNbxJBGMd3WFjYkS0s26azlC77MhRJM7QSKEvT2iWiBxpbLtaLNMSjHkCP\n\t\t\t\t\t\t\t\tXmr8AGZPXm1i4sFT01TFxEO/ANpTb00a70168iY6L7T2Ms9ksuwyWX7z/J8Xogf+sX/iy4sK6Pg9\n\t\t\t\t\t\t\t\tf8CWAh/YCVSy9KGcCnSXlKxi24UlK932nJK1MJSngrJXK5abVavWAnZxReK7pMpP19PQRFgNITiA\n\t\t\t\t\t\t\t\tIAUH8D38CaOQHYUFIjm4nCcd0iMDEn1NQhI5IID6RXJMTkiU9Oof93iDkyj9Ml19swR8sbGmNxqT\n\t\t\t\t\t\t\t\tDuWJdJjO5mIJpTC3kIuZORBPZOPzTDywXCrvI+ClpRciGqbvF0bnhwlIRUQ0nirclvUMVw46Vw6z\n\t\t\t\t\t\t\t\tlUlQDHTe8coTlazAKOQDry6JNhAeH9PVSn3lapGGzeBh/01zazBnTMHlYHx3JqhAOd9avvOsPdN4\n\t\t\t\t\t\t\t\tMF5d96ZRKp+dWZoCmdjbP09f3d95Enwaf39soxzGxYX0Fmi9212qbo9zu+U8xgb0d+R1EUKzeHmN\n\t\t\t\t\t\t\t\tDnFK1y3JjfT/8/VNwtQ5zbMff0bjcGgOz/o4iHHgGEhWqVfj/oVOzjkmKouEeU1p+PfHF3a1qqEr\n\t\t\t\t\t\t\t\tL0Qnv44mcJ5fwXn6mbNps9TR7LbTd/aoNHD7lPqeAhSuynmGg91AcRWDKttT6mhG3fRZd5JNEhWO\n\t\t\t\t\t\t\t\tEQWInuOLrDX5mhvN5sQ4fGT3OdrcnEyaTTEJzHpdeRSwJOK+EmEPlSTbceMG297vIMc+qarY0zg9\n\t\t\t\t\t\t\t\tWoRBonF62M4EPYgdE5w2uvJVAIe9G8SIOJt+97PRxkgUASbgmCEGPTzAId7Hlzhm4w6OBGzAzIlX\n\t\t\t\t\t\t\t\tKlVu/VVhybKwXoHboGxmqxQno+1qJStDISqaTdtyWkkzaYR0Kw1JcpNxIwNDFagNpgsO79WYCVIb\n\t\t\t\t\t\t\t\tNfl5MqmZGkbBYgPxeszKajVEoINADw1QiPbRJYqhQ+/wA4eH/9GEEUPlwIWQ3FQN0K2lr5v7hduk\n\t\t\t\t\t\t\t\tYHTBy38AAAD//1ybz2vTYBjH865bss60TZeRmaRrUrauSV6JVFjLaKCZm3pyeJlTPA3RkwfxD5D9\n\t\t\t\t\t\t\t\tAWLnQbwI7rijljErXnoaXip6EQ8eREQELfQwD4LrfJ4n6VZ2eXnzhjc/yOd98n2+eQIr440gjpdf\n\t\t\t\t\t\t\t\th3ARUladoiWhxmK6bnRPVxMe01+pHNf+A/2uV6t5XlB7qJeX+svLvpmU8kbOSbOpsce4I/C8Wr9w\n\t\t\t\t\t\t\t\taF9fBNyNYI1tPD1n65m5+8LI0e3+ZdYYawDbLusNvTvOOCqlfaqFT/lgF4M+dWKIvw4g/hyqEcXR\n\t\t\t\t\t\t\t\tCpjA4ZTVOurTFOj8pinQ+UJTLJySxCmWILolpFp2QrRHHVcz3yvC+W4HfVDlUyeGl/MBvnwfsrW9\n\t\t\t\t\t\t\t\t5wYTdcbxedSrCynehJAa8mt8i++kd2a2uWjDxiZPKDDygSeMcadkL5XyzoqOtySuqUbS003blSWt\n\t\t\t\t\t\t\t\txdJhShEEWYIzZ16oTEUrMfAiGMIrCwmfT08bQEHENpmpeKfQzlnWls0yNsM/Dnp2wrbJb20d/YEc\n\t\t\t\t\t\t\t\tGd3Wpsc/FpAM+uCPATUuzFhVLt1Z+XH1ABgBmYh2az1ajS/FjrlLVHYf3MQqwKjwb3GSx7+HUOBV\n\t\t\t\t\t\t\t\tcvl0ZqaYy1g5lk+bqM/YIGODVw+kbOaupimu2Bov74UCcyXFbEm95j0lQ04CgBX7CKfgGvpUFJXh\n\t\t\t\t\t\t\t\tDTHm8CDggNLmu+1bN8oFw8xuFM762glpDdrt8aBv/7v76/vF2dkLKWm9uP5k5NEzXiDamJAVhFEZ\n\t\t\t\t\t\t\t\tImk18XeINW6Q/NCptclyzEa1FNTCCNKiYQva5CfxhJ2QRyKlUvItFsuTUQq9IgkWn/SHryGI/kCn\n\t\t\t\t\t\t\t\t+AOd4mNsxgNApx8qNKSwrDU6PzFtFB06ESYmb0GtzAsLwOlkhdRKpSrM6zJdmoyFT0k5RUsh8e3V\n\t\t\t\t\t\t\t\thIieZpfHIuaQt9ttKr8+kTG8vQ9xGFjm5f8AAAD//0xbTWgTQRTemSSbZHbMzOan2U1JZtOk2VBh\n\t\t\t\t\t\t\t\tE1rTZrGatmr9wd/+UHqQihcv1ZqAIFShnnorBfHSHnrz5EEpQj0IpZSeFHoQxIuIQqXWoAf1IBKc\n\t\t\t\t\t\t\t\tmaS0sLvzlt1l2eHN977v7XvFZipIotwr4jIXhlUK+PY4+AQtaot4mSzpy+EltuKuIuSabmKKTulT\n\t\t\t\t\t\t\t\tbJrO6DNsGQb3UnUG54KPQlueLbILd0ld/xEOVPSKUWFlq+IOkxq6RwIF2EWtTitXcMugTP0xOg5G\n\t\t\t\t\t\t\t\t6JjlzdAJMEF26G/qO6+fYxvBDfQF+eLBNsqSjJ2BQ0TVdBI5ksBJkgoxddQz7h31TdIxfSyimiSZ\n\t\t\t\t\t\t\t\tTLFR6G0FkkKvIf0fUA+yS3yOHmCAZ/k6QqppY8xf3WJXMtWa5pO+IyODkAYyMnDjr4wMjuOWD3iV\n\t\t\t\t\t\t\t\tpFWCT73lIU1SKtnKyKdsnBIA9XAkQk2WSJkOp0p2B4LBFBJMyc702oXBUqr3tFJQNI5RWYtFLQAt\n\t\t\t\t\t\t\t\txrlpEcAoAFAUbbEI8NqQIEoN1Kco8TXwfeCigd9oGlK595umgbQinsPwJwbb+BOGd/G6+P8Wj68Y\n\t\t\t\t\t\t\t\twEgwF7icWinZQkFxqPNcFgb5rjpgzll0oHOj7K6B+6vpp3ckDFRr10XnF61fprU/wvzFJUv1UKVd\n\t\t\t\t\t\t\t\tXax6U3yykH7ccWh//3zIMY6GHtLN+UDLUPgNRium0Dqg683jvLi26feLvotarSp+z9VAUxYpVaUq\n\t\t\t\t\t\t\t\ts5uUL5soV2Usz/Ul35MD3PHyxIWyKsXVxKC7pDkEm4MoRXjBkUgmSVsuOymq/wY0QC2PzecNI+H/\n\t\t\t\t\t\t\t\tnN0htTPR5rHz/Gx12rRFLOuR/K67ordaAnShtkrHcnYpHVNVvz8i1ZiIa7IJFew3uHX3HTA/AUFX\n\t\t\t\t\t\t\t\tdi/gQDoHFkZuD+7t3ewoZs2TjVO59nzjq+lcajjDmZhGQlYi1qUD6lv4V313OoxxNAktCzrHPzTe\n\t\t\t\t\t\t\t\tz6YLIZTNglgk3gNuNbYnywbIZnUtnr7mGVo5265nBEad4GyPcIyKgWeHuV6cUx3J9aJYBf5W3lOi\n\t\t\t\t\t\t\t\tDZBoA7AQCAJwuPFNaiO8T+ewIH0Carjx8aV4Bvteez7/BwAA//+MW0Fv0zAUtpu2MZXbqGpnQ5kz\n\t\t\t\t\t\t\t\tqYkob8DatDGCDSmpNDGpp564DfXADyi77rJfgHLnwP4B1YS0G+phd/gpExckkBD2czvaG5fmxbUt\n\t\t\t\t\t\t\t\tR3p57/u+90KYCS0+adke0lYbY0t7xwzY4DG8k0UdPrqxyugG3+m1ELG1scjXMssI8VeKqNNCMVXZ\n\t\t\t\t\t\t\t\tQzkAxl3YQ8MBMM6l2KIsGdb6bDS6LuRS3kpPogj5OrXX/PDlUUrlVf3d86mkuZzKmZzLQl6aiT6H\n\t\t\t\t\t\t\t\t0J90KYTVXtTu1cetsH1sjuRXa4TGdb7axrW06KO04HTK6YzPecEv+S2v8CuxAaEc8che/QNNp/Q9\n\t\t\t\t\t\t\t\t6pL0zGCmLzuk4jPESn7t7stIug2O1k5z/iA9+ZNlB53G3v3O4yZtVj78Hr95oRAIefnHEwT5lHDD\n\t\t\t\t\t\t\t\toH96n8nIK29kJqmRQQ8wMyWurY8FIrIM+cDeRSoGhr7A0BcY+gITSLRXnWBYHxbrtCPWbU/CKl6P\n\t\t\t\t\t\t\t\t7HRBFC5WuJHCLRQgzwZMYbBOVeCCJRounRnjV16zK4DsluIBvoUJ4qlkWP9qHMw2MHcd887vxUE8\n\t\t\t\t\t\t\t\t9DtPS5ZpZ/2+61I2qaq5zbWfLFe29QzjeTf4s6nJ52/7AtVA1NsStPEAids/iBl6I0NvZEipmcAy\n\t\t\t\t\t\t\t\ttMAhweyQEDolCmcqHFD4p8IHxUr12oGN8ePazgDQ6f/SbpMlDrXh3Uxb3j3QUz3Tc13oyrMyzdG+\n\t\t\t\t\t\t\t\tMHcLXV3o77q00HRmBpbaU0xAGDgKDhDGky6DsDGJFISRo+BJb388CJPjXRINR/jEcRQFQaMmRewX\n\t\t\t\t\t\t\t\tjC6skjVnn9g3VmaWgj+EkYr392AKM5hD+QIK+AsAAP//2qDJzKApoMmkCZ7gEhEz0UwwgXTDtYnv\n\t\t\t\t\t\t\t\thgtJSDKzsahKMovLMLKySbBKwTrhkA0dsYWgNRqQXrgROz8Xk9QODh5gOc3EriTAy6yiCl4EzM+l\n\t\t\t\t\t\t\t\tAspIyB1xnN1w0MYMJEFEVjNm9F44yTtHQYyP29Dpn7WwgzEXi6NveRk3n6H3P2sRN0NgF1xGnZ9R\n\t\t\t\t\t\t\t\tRJvp7SHvMJuaf5Xh8pLgDji/P2N5bWHTP9lYMVlpFRX3FMaQpR5SoCYjsPft+v8J805gzuRnkGXS\n\t\t\t\t\t\t\t\tRcqbMsCCGFymgqeaoO0xAdCSQx4pFlBuA0mCGA7CIEEWsDIWcVUObgFVBnD6hy4VgvQuENPNnCB5\n\t\t\t\t\t\t\t\tkDopkGZpUCqUYhEBp1ERHgFwGSoALkBZwCsaQUwWFjkeHsi0sSAwNQqAkqPAWW0G2ASTq1CDKONy\n\t\t\t\t\t\t\t\tsW1iRxlPch6RvcnJJvSci9GD01UsXLSVsYezk/+mNLu8g5EpC3i6eL484zHRk1JMDvKMnhww1wiB\n\t\t\t\t\t\t\t\tNyRpA+tuf2DiZWG8ACIDWBJYClgmsGxgYWN5A9q8Zu/AMx/YPIHPlIJW34EGdbS9N2gEe28ICIza\n\t\t\t\t\t\t\t\tyCPnuVGexTMoKmIvaL0hAwsQy/8/YGFhEekcsYdBitmIgYVBhNnopcBLaSQusEKKRJwWYMYoK6TK\n\t\t\t\t\t\t\t\tp8akKqPGpcqmJsgvosAgyyilwCjGCWRJsANZwrwCCozSzEBClFtcgUGSFUhoI+86AqZR0Ho7YOoE\n\t\t\t\t\t\t\t\tplNG5wgHwVKmUrYqriq+KqEKsVKJUhmO2EhgIwY0lswpIyBoKQ3EoqChZG7IUDJobopBALyMiIGd\n\t\t\t\t\t\t\t\tQxy8+YiDG36qAKMRdLMRZMehmThovklECDqay8RwoS677Hz9+ar02jPBptlO85sS6zLdmdfPa19f\n\t\t\t\t\t\t\t\t/adhaffaup/ljvbzak78u7fg8JeeBGBv+ec/L+ZdwLSozmDJFIyUFjWtwatejbi0QBRoqBE02ios\n\t\t\t\t\t\t\t\tyaDArCkMLtWFFcCLXhVA46bQlUJ/AAAAAP//ZFxNaNNgGM6XdEmTrmnSbmuyQZKtpl//bLu0q2wV\n\t\t\t\t\t\t\t\tF2EgOtgULxvbdMrwMCp187SLHTKGetG7Zy+7eNDhdhMP3gQR8SB4liH1rsj0e9+0c1MCIYEkvIeH\n\t\t\t\t\t\t\t\tJ8/zvc/7IZNjkCiKzkfI5OMhVRyEpmkSRIFhGkVXrc2LEvpkmUNe5whDL+PsyXapjRT+12F8YYZD\n\t\t\t\t\t\t\t\te8uounQiN7TPeb9/7QJQPQUwi+EfRalPsOoQ1wlk3YQT/FXQxX73h1DPO+ypjKhSjpgqKyYC1UAB\n\t\t\t\t\t\t\t\tgIRJLeBacpSXeN8JTOQB9feUOqB5XLuoLWgP9dB2gdQLk/XpwkJhVV8t3A1v6BuFrfAz6SD8Q46W\n\t\t\t\t\t\t\t\t63OV+WqjGvLrpBQWMtl4wsla5vZIImsZNMXR4VlqcVN8PJ8RQkWtRqASXoKaTEP1Rm3licIvK5vK\n\t\t\t\t\t\t\t\tc0VQvjk8Wvkhx7kM8cHNYQKxuyBq1zO8PPFmuiM3GMkCz67j3hzMibfXj4JA+bygwnTe2WCMqjQm\n\t\t\t\t\t\t\t\tRcNuNd2bLrtjkueQUpSdKnLNIaORovPPGBV2QoB2XxBJrO2Fky8boqQW96Svuw01kjSDQRlT7cS2\n\t\t\t\t\t\t\t\t2cEQK7iV/m6TNOhN0K6sqQwcW/LsCSgYAt2dXVt4Mpi+8Hj20eLagzs7l2oZLzk+feiYZ2iiX0tZ\n\t\t\t\t\t\t\t\thkuqsnr76sq5K4v+XLl0Shhf/7Rxo7H1sf201R87fXhwrWK5LhmIjK4IN+fLhto63GmmJuZmbu1/\n\t\t\t\t\t\t\t\tWJsx4kGPgX/FsJ8hn49nhnKIfNFO6hRFDDVsoiPkdbzXUc7odlf/2F3lYgPGsHNn9+FSEUodGwa2\n\t\t\t\t\t\t\t\tIvggc5LGgAn22+DSDP7qLG3SFmXmQjJ6BQbBd0woLzGX/fo/9QIrndrJBkEKPpdm7zbllszL7AOG\n\t\t\t\t\t\t\t\tyCpF+OsYmYMafyL8bVDwQPRwgfkB285lj3lSZsEgP7B0pDWG/KbDOzGP92I+78fuhyQ/R67niA3Y\n\t\t\t\t\t\t\t\tHdGzVnI7RalzPm3RKU6J5PQ+RyN/AAAA//9cXE2I00AUzkuaNps0O9nYrU22prOb1OlPNrWNrCyo\n\t\t\t\t\t\t\t\tG/zDX/QmK0QLelKRWgUVUXpSPK2gF/GgJ/GmrpciLHgoqPiDB3/wviwKLoLsVdeZ6fqDh+QNeRDC\n\t\t\t\t\t\t\t\t8OW9N9988xI51vBi0qAL5WlJElK51eqRJERJSAaFClSEIa9QKGDo4OtYFLCBH+Kn+C2WcbN874+6\n\t\t\t\t\t\t\t\tmnFKG432/On2yoGR9mI8tLq/dSj8Qzu2aR1AwTibzVk85efUUrqrrHp8Qiql+BqNopA3Opj4rbbk\n\t\t\t\t\t\t\t\tsPqb6/9fje09c2HDzvWee3DYHB5ft0rfsvlndceYpcq6axeICsPSgzdvtvpkYnumfPjnrr2EJnYv\n\t\t\t\t\t\t\t\ta7hDB+Do3U35Ph90bHlefE8xVU8c/wdTJOSYCiOWt0XgnDpwTh3QiK2QNHtORhFjIZkPsRDaYH5U\n\t\t\t\t\t\t\t\tTykEjSbMqgwXZDgpg1ysAUAlZZ1z4KgDThHb0LRbtmibmjDVi2OaHWvUUhMzuSODEa0IXr97bbzr\n\t\t\t\t\t\t\t\tx9A/CGqMIqIkKlnHDGSxUk/1X2OZe2Q4IV+URblYSW1z4Jhz1hGdoqkB+8Lvkc0QhVDYsJVBXhET\n\t\t\t\t\t\t\t\tkxlCwsZKrOz1bY9pzGJ20VV8PGX0uOqd0x0jUXnAt3zRNINIm/RL2mQuM50+tPa2cdOT1ZRaUsvN\n\t\t\t\t\t\t\t\tsBV2wiQKu4CjqzTsvtRfDva8XvGj+8H75C8kFtwF74uvmVN+7J8av+TPwIw4I3WGWb+ETv7a+Eyg\n\t\t\t\t\t\t\t\tI0CiKg2kk3nVfz72wlXyUjZj5rNrrPKIf2vglnob33BveJpZ1Uv+bn9/eCQ8Xz7vXxm87z4IP0sL\n\t\t\t\t\t\t\t\t+XRZqTvCnOhAAWogQheqs8Jc0AU7GqrkHGtuxLELNhg2pjPHnNZcljnHTNNzdS2BCDeyA8+EoFap\n\t\t\t\t\t\t\t\tCwKbVPuyZeWYhDqTrbGJFV+ZACbbRv/GVBJSJtJaCJqoha4jCXVhIrKIbQUFBRT/DoEmaZEOkTBZ\n\t\t\t\t\t\t\t\tR0TyBLDQAPxoz+8faN9ie4kX2j+YYmx5FOLpyRqtOGaXgQ55A60ldiKb8/rzRj/ZshutV1Ra83u6\n\t\t\t\t\t\t\t\tltF17epgwKmZ6ZxgfF1ajNv8BG5/zIcrDUwCPKCvF6q8gckvAAAA//9cXM1rE0EU39nNZtvsbrO7\n\t\t\t\t\t\t\t\ts5tkv9LEBJvWTVIpiitC10MtFqQKYikY4wcelB6sIB5E8FoUCXrQWDDi1YOliNSDtEIPghb7D/hx\n\t\t\t\t\t\t\t\tKNKLWA/2UlJ9M9utrYE3OySbeUPYvI/f+70JnFJvd05R40K3mndQvLfDgb951mGEEu+g0J2Ejdmk\n\t\t\t\t\t\t\t\tO2hDWFfW1Y1SrDaOrjOTpEEhMFuoxba4lvhEbhgNq2E3nOaeR4VWWYLAaR+pwxN+QSBWC9XiXW+6\n\t\t\t\t\t\t\t\tOO3xtXESTqmlnOl3lkwfBQmfBbFD8ppF6z0JvwJveVQ6fUnJaoNdOTJA8DBr+/Ri+sWQAlgIL5Dc\n\t\t\t\t\t\t\t\tr77GvpfB4VpauFZSAxUaqNB8L6eR76wFySTclvQ5RQY9MllgLdBk0CPDPSAZlcr/LRK7XyjsmRi3\n\t\t\t\t\t\t\t\tA5llK5aVquwXzEQfPyd8fzXRJ2hZmMxOaNuUW/Ufr1wN25RJZT+9fSQFWLWCOhD1rBV7IiScJD5s\n\t\t\t\t\t\t\t\tI7/35tljZ3Ld9Qcf3t44PZE30nI+7zy9ODR2YfNLuTx96+CJAVXRJO7l5vuHV0fKh0q9leFLz283\n\t\t\t\t\t\t\t\tswkLDd+7f8ofOtc47I9NPk4nuzJg+fQ/v9gjsXeMzZZ2cu3cQAPL59LSiyhRCEAyMOIxnWLqInFU\n\t\t\t\t\t\t\t\tucdRPQaTX5CiE1js8JIpPUZIdgyKg49sLy9VfyxuecfPEB1Wd1s1Mx0yZuho7JjbBAEnEyuamARz\n\t\t\t\t\t\t\t\tp4DTNRGJSRsZV3R0XEdUXQAPMOgWbcTTYJKn6TxP/SuPQwAjTndKPSuO0F6MXWdHOk+ZtoPt5Vpt\n\t\t\t\t\t\t\t\tQVlSFmtRxQweBvsNI8MGjkp+HdVZdtBtqk1z3phPzZmrptBy0ZSFRqVRuS7V5d8ZyIWNTE+GSxkZ\n\t\t\t\t\t\t\t\t0+IQGXT7GeKM/q3dcv0si+LSAbLp1Cfjq/HT4IzLuv2REQkG7OXALVeq7ozLugxCsRhf1E9idAcj\n\t\t\t\t\t\t\t\tcpDRDF7Ay/gbjuPzzoupKJRsh41NNXqMFFgXSNzbKyGqCx+tIHDMDIgGFp3QZP4CAAD//1RcTWsT\n\t\t\t\t\t\t\t\tURSdNxMnb+bJJPOStpPJpHnTZDL9NGhMg1L6Ia0Ev1pwYasL0SIoVFAEV4L5AS4UuhEX/QdSi9Zu\n\t\t\t\t\t\t\t\t7b64ELvrRlxJ6sptSt+9k2kjyQxDmHkQOMw759xzL87GAYq4nSfy3UYSO8n25zWipyh2+aS62MWE\n\t\t\t\t\t\t\t\tC+K21leycUxKo4bp8Qrk6iYhu0Ku7e/Xhv1pOyy15s8tj75rvJgYGEl8O/pxtfNxZXpk+OFq7f6q\n\t\t\t\t\t\t\t\t+tjvf9KsPJL4U6Wq7mjrSqAu9+CvP0S/i3btTSaGscPhhJOJwa52+R1V/YSLN7rcg/t4DEweqxx5\n\t\t\t\t\t\t\t\t8Q/L17wcixrLCXQmLEcvjFssCSnZLyBqqKlUD8YgkSmJy0z6sB0X/6pxN0QPl7uTjOLDGjWZYI5V\n\t\t\t\t\t\t\t\tDgbkqtGSjFD0P83I/0RHVLjohrpI81wTFT2ntCIQo0KPmiMqHBxcuIXH1Wq4QJRyHla6KAWBD6c0\n\t\t\t\t\t\t\t\temN7GCYF4SDhimRQclLMhtdJCKaTCGH/2QwTF1mjeFk0i01xxqWZRdA0/uJgEJZoSOaSg3ResKBA\n\t\t\t\t\t\t\t\td8jCbMZUgkBuefB/LJOZjPnY4mApm4SkyDOyQb6TBMFgB8+5Zc6XMm8zakueNjNaNGcrAqiEZ2X3\n\t\t\t\t\t\t\t\t9f9cEUabdaamcPgcThqBDxqAJ2wRiox5L2V7KddT0nY+XfAUNJVwchaqmq2yMyCJ5Ne1wNFNZhV2\n\t\t\t\t\t\t\t\t6NktqWuiAmMt4pI9zQwxXCV9TNb9LohtqAFoqym/vxhaR38nXr5auPl83Gs0ydzKzNjT65fuauud\n\t\t\t\t\t\t\t\tnxvYwrDburLypkXez13Ik6DzobU0eUNN3mqoAVQVJZYPJZaF+ucUy9uGobhcz4IFastDyEPVfn1S\n\t\t\t\t\t\t\t\toER32G7PVOXOVD11fc47ppGnhjHky+dYFg3NbEa3R1EacF3FX+QbQ+CFgHX2xk6/UVyverCXxo6Z\n\t\t\t\t\t\t\t\tWYPfNpedezktB31crD4Eu+GDvno2l3VLxpDp2+IYAAD//1xdXUgUURS+d/68967r7uxuOnNH13F2\n\t\t\t\t\t\t\t\tdV3W0GStVqw28CfNKDAqgjAoiF4ijJ7SMKisIKToxUgMIbJe6sVVE0oM6q2njIgeDEGMKHooQU3t\n\t\t\t\t\t\t\t\t3BmL6OGb7zBz7zAzzLlz5p5zzwnFDdu0eT3NsPpQxqgz63kbaaWNrMloMlv5aXKPDNBBftcach6h\n\t\t\t\t\t\t\t\tEfKADpvDfMR6TkZpjuWMMfMZn7SmnBljkS0aK3zzEMWOGxNxPO1yaovH0aTHLS0eJxIex2Ie67rL\n\t\t\t\t\t\t\t\t2axZnA443agLd0ln1W77knpF73doPUmztJGxXmlTZe953jV23egz5W2hPYYUNiLRMLLsKAoxPQra\n\t\t\t\t\t\t\t\tcjVbRblpG6ZZQ1mEUmZxHqcEJDf5vkLANAyHwHxDGjd9xjiGD14nw0EWZ0Msx94ylfVQS7zswaxW\n\t\t\t\t\t\t\t\tfZ9MkDeg5T3UPM/FAlkbUbjeQChNNwI5XQ9VbZ2gsfw6RKfg124cv8gFHdzreE8DWgnOBcLpMjFU\n\t\t\t\t\t\t\t\tm8FUSuS4EOMKXzXmTdAN4wf/KrjL8FJ0ejohxus+z6zrUzdcbymw74Sv7d+tcFAcE6FOG+sIhIqk\n\t\t\t\t\t\t\t\tsAiBHGV2oX8XDHILY8A07hNhJLNgLTERdMfCGWKDuQTY8K1hb1Ir66cchTTus/WIjGR3pgDeNy9S\n\t\t\t\t\t\t\t\tSlgyXtY0z4YJh91JgAqRmkGDPzYcwyK4OqHjJ8WJ5KaZd0XE56RxKh2JFa9NJtcmCitL9Vr5TnmF\n\t\t\t\t\t\t\t\tHatZ0yT/9pICGvCVlyt6tPnXN1ndWh2kBLnJ2LXlTyt51cudgYafxCRu3YnhuZLpPzUoRPSIOqj2\n\t\t\t\t\t\t\t\tg0jd9m6vvLK1JnT4b6EK/F/hinItg4slJKZ20RnpMeoAviVlkKwg1Ab4DqgCHAG0A7rh2FP1EHIA\n\t\t\t\t\t\t\t\tbeprFFPmUFI5hxzgnfJN1ApohnaNwO1wvv0g7wD4oV+DlFk/AbIOstiXD2hS0PoStPPLJegk7I8o\n\t\t\t\t\t\t\t\t4lJ0t+ziXvRQFJ7EHXhV6pYvKAeUD+qSto/kkVkWZdO+j/mDBZNBrF8M34gsFJ0yC/llazLqLyX2\n\t\t\t\t\t\t\t\tjGPFBuIvE9nK3uR86rZ71xXoqFis5N5q0C0ohtTPyhekImk3Qwfl3wAAAP//RJ3bSxRxFMfP7llF\n\t\t\t\t\t\t\t\tJXdWSSNNx0ryEl4YogsI7oq+ln+BSqaBJgrb5aHd9qF8iAKF7P7gFkWRRTWDZkXoWxg9+BzkBeoh\n\t\t\t\t\t\t\t\tyPQ/sM9vdqyHz/me229n5uzMLMzD7Gb4lVSJrX90Q9rQDTe/yp7X35422u2JMv0hffpLpvWnrEJE\n\t\t\t\t\t\t\t\tYmRieO0whr8NeduLuu51dTnxefRws69ufYPz3hTcin3OJ10Pv5Q684hXV93ySr+y4nZ0BM7R4znH\n\t\t\t\t\t\t\t\ta2xyVhNFuiKbENYVXZX63CqvvtnZShSTCOkVsbh6bcnqd3kDYYnrN6/2kDO9oF+pf9ElOeMvW3KL\n\t\t\t\t\t\t\t\tSxw+8LO+k1IOb05ng8qsFy1xJJHkGwvJInYZ1mALIjKqzyQDE/AaImJhbWiBUyajMzrDfj5lvYVt\n\t\t\t\t\t\t\t\tgVGYgAiTfUF+2Fh9rkNygLU3+X0oQ2/oLV+foBXoY/LV6CNio9NB/BA19QdB/j5xOXov0LvkK9E7\n\t\t\t\t\t\t\t\t/p+j2no7iC/qBX/d+UCzmnSr7ViimnoNtILiTeFNMbopc4ZgQ3pVz/lbeos66EhOGVfa3X/Q/47S\n\t\t\t\t\t\t\t\t3p69TpaRphl9msmlmVzaPMDX1E5PKtfTpCl6UvSk6EkxlVZNsr2kueywMagBZe5J5p7039OcpD9J\n\t\t\t\t\t\t\t\tv8lfw05C1kR6iTk2sFfXdcittznJznon4k77Rx1k1HEd5DbrTPyPCovMiYhGA7VM74BfHfAKd5ns\n\t\t\t\t\t\t\t\tgFdRlVO6hhNR7ZfLEJbd2Fo4Ap0Q0X63tsX+oCdlpEDiUTsTzmgmksmLtHaGShfUkW7uTbaUapO0\n\t\t\t\t\t\t\t\tFcic3dsWOjaeTYzraXMdYmMwBpMQ4Wh7yddoD/Qyl152qoe8YIUoBsv4a2gekUWfRZ9F1iJriXlx\n\t\t\t\t\t\t\t\tuOVXuqEPxoJq/r/KzhrTv2UqUEc1SjbKUa7pXwAAAP//VFxNS1RRGD7n3lEMex0d1Cit03WcbOqC\n\t\t\t\t\t\t\t\tHy2EujH3lGEOt8bdgJuJWgQhaMtW0aLAlZFRYenYBxE0MnIwEJJq1db+QS7ctfEjBMM+nvN6XcTl\n\t\t\t\t\t\t\t\teZ5z3o/zvpfLPefOZhpgxwjIY0aYEWaEqG/OLjpsBB8HhgGXbasAnh9439cT+68Btexf55h9X2hz\n\t\t\t\t\t\t\t\tnd3Q7/qSlQtZOZeVD7MyDHK6L+wApVKp+5NRNfocrUSJUjQW3Y3cfntsmtM9fawdGasfzOEjff1J\n\t\t\t\t\t\t\t\tfc6porMSuAx8B1yhwN1ADhgDEk4VrLC7dQM5oACUgBpkzNt3Fqxin7WX2WdH1u/853dxDxVz9kxB\n\t\t\t\t\t\t\t\tX8E+VgLKgIu1K/BXOHpvVGX7AniV7YU4fo7tCryf43KO3TtGYlZADigB40CNWHGL2HeLdn2wAsaB\n\t\t\t\t\t\t\t\tKpBwR3AV3aIzj6viVFw/pN4WJVpbsdenmuoadaNzEA+V5DvmZ8wTzDnmzrAhT9t5+pSnB3nqwsA5\n\t\t\t\t\t\t\t\tKTQcj5m9sF7ToqaCpqwmrHZIeDjQWphrLcsfzFeZ/bDZox2Ptjza8GjGo9senfdsXjteC3Kamest\n\t\t\t\t\t\t\t\tyyfMeeYTYb2ir4qKivoVaZKzEtXFBeZjzG2W5eZiciApDnyUm2IAK0kTZNWSI1jkXxNoyB8TDEJ+\n\t\t\t\t\t\t\t\tm2AW8ssEU2pZ7kg+LeS26VxTukX+lEMJO9+KdUMOiffQdehN6FsRyAz0jQnu2fjXyJ/G/JXoqLPx\n\t\t\t\t\t\t\t\tL8Uw55XlENtn4rwXxr+Oqs+NfwdVp4XPVZ8afw3WKeNPQB4ZfxQyaTK2wVsmOKV0k/3jE8fG3sBP\n\t\t\t\t\t\t\t\tYdtJFFe8jJVHoYN7yZeMb7MGbIEledGkeyFdtstlmRbDXE6ZNN/kUZHmJdpFmptuExnWBpnk5gnf\n\t\t\t\t\t\t\t\tLlb/AQAA//+snc1rE0EYxucdancoxdRSJNCPCZlsEbvFL0paDW0Im0rZHvoZsvWSZBPai9iK9lC8\n\t\t\t\t\t\t\t\t9FAQpB4FEfTkpUGc3dSysQVLwavivSf1X1CP9Z3ZYiv0IhjIfD0/npnZvIHZPezLArGOLq3b5nf+\n\t\t\t\t\t\t\t\tK7OrNk5+QCx4yb/t4f4K2P0KE0Gdf2mqyxXwz1YI5g7/JHb5x1QIhYDvWyFD4YMVUnjHfbzIElkK\n\t\t\t\t\t\t\t\tO/yttcjfCK2+FqjiT/0qM8hfiAX+3MR+wNetPbUMchd3XEDZtUb5ZKbOx80QUM5m1NtR2/hNcZ+P\n\t\t\t\t\t\t\t\t4PBwCBONOr+WCtVSrqJHfYdfxhn7BS5lmw/Nz6ff0yFiwMOsZTwwKkbBmDZuGTeMQSNh9Bo9Rhfr\n\t\t\t\t\t\t\t\tZB3sPGtnbYyxVoZ3A4ywLv1GY3VO7Grt0DmWW1TZotsdVJU0OkZSYBT/PXiP61BnNgeyE09sczmZ\n\t\t\t\t\t\t\t\tHnBC42hGDg84kk3dKfoAT13sSfo4BDJXxBBVQxvdKg1VkwBc2djsVvWjjU3XBUfue8SpJOTPWdxJ\n\t\t\t\t\t\t\t\t2/SCPCdycXJxdSw+1jl6YWTcPqMoHZennkjG/3o+Ge/NyWfObDEY2trqzbnyum4fHWHbkbdVHqsm\n\t\t\t\t\t\t\t\tXaH38naTLqvKLTZhja7kZ9Q4rNnuH4wk6TJieJhdjrAGSSqMJKGhsUmNYbwm87afTEbQAUwoCOPo\n\t\t\t\t\t\t\t\tQEOLkVcKp0CvKVUhRvtISnulaJ/CMDAis9hps3YCMW0WayfarEdBvmkiYpkK8dMmAr6Z1nL9RBZm\n\t\t\t\t\t\t\t\ttByXmHoeE1w9D8AJcyliMBiOGcqQGfifn1ruH2BolA+rnsomVhL5Gn5L8snqUlxlmkn41cPjNGP9\n\t\t\t\t\t\t\t\tpYq3pOpyTR6Kmi2rwk74Ze8M2VNyWdg+8fJzRd/L1uygnC3/BgAA//9sXb9r20AUPvmkc5TrD7eF\n\t\t\t\t\t\t\t\tIvCgWKrBIIyNTUtJRC3bchZBbZrFLgU7BAqZZDjdGgc6dUqgf0ACxaZb1BpKyZJAty4JdOtU6Nal\n\t\t\t\t\t\t\t\thW6d+t45DQRy6Hsffp98Tyfu2WedfOq4m+FgPpu0oyuxXl/Gak+uqWyClbUx1iy6Ro5QnmGsCGNF\n\t\t\t\t\t\t\t\tGGsWzFSs6FlLi3r990ukhbMAiucZvgxpMcoXBq37ufETlSNrBWsnf6wT+P7i3iC94bbSmwCUys1y\n\t\t\t\t\t\t\t\tEyVIUpRu4fPiLiRrZ62QP9beXUg5cN9xW8QjVmc7vNyEEIlAI6UHNpGWciaQvIWNKF3Hx1v5qd9J\n\t\t\t\t\t\t\t\tg1E4UL+LYcd+8GjoDovD0nCqx25cjEvxVO+63WK31J3qDbdRbJQaU73iVoqVUmWq265dtEv2VJeq\n\t\t\t\t\t\t\t\tDNr9IHfin/mZ2J/4e/6Bf+QbC/fdE+fMyQyd2Jk4e86Bc+QwFF70Pwb+gfPLoRJ6opZA6YTqcCUw\n\t\t\t\t\t\t\t\tbPgykdgQAUf3YGSOzV2T5swVs2oGZs80Yjqhe5TatEIbtEuH1MBrFdnVOl5qWWer9X1+yFN+ys+5\n\t\t\t\t\t\t\t\tkbJTds6+s9/MWKzS02MjNma7bJ8dMhP/hJ4Z8THf5TTHV3iVB7zHDTurEWibAOA5kjIf5LIstPly\n\t\t\t\t\t\t\t\taNNMaJtLoa3WGPCk1+43HbIF42MNxvJlcg/gAuqADYBBPoP9CvgB+APQySuwbwBvAXP00DItd6zt\n\t\t\t\t\t\t\t\tEM/BwMNPUovW5tWHtcefgDdfLnjj+YI7TxfsN2sW8IdGfbl5G4bqGjkG+wXwDfAT8Bdg0Bqtqcrl\n\t\t\t\t\t\t\t\txcIIgghPg2bhLFCCRniJWjxBw76TCM8jYnE7sgb9Sd0cejWLiSYkEYJA7wKCnZRX4Nsk8v8Cgppp\n\t\t\t\t\t\t\t\t+gcAAP//AwCNTypuDWVuZHN0cmVhbQ1lbmRvYmoNMzIgMCBvYmoNPDwvRGVjb2RlUGFybXNbIG51\n\t\t\t\t\t\t\t\tbGxdL0ZpbHRlclsvRmxhdGVEZWNvZGVdL0xlbmd0aCAzMT4+c3RyZWFtCnjaYmBgYGg4y8DAEfGD\n\t\t\t\t\t\t\t\tof7+/gMAAAAA//8DAB4uBYMNZW5kc3RyZWFtDWVuZG9iag0zMSAwIG9iag08PC9EZWNvZGVQYXJt\n\t\t\t\t\t\t\t\tc1sgbnVsbF0vRmlsdGVyWy9GbGF0ZURlY29kZV0vTGVuZ3RoIDkyPj5zdHJlYW0KeNqkjFcKgFAM\n\t\t\t\t\t\t\t\tBMfee+/d+x/Rh4gfgiAYyO5OYAM/R3qwjHK6iiZU//zHuJMp1sK+yMHFwyd4bYZExCSkZOQUlOJW\n\t\t\t\t\t\t\t\tUdPQ0tELGhiZmFlY2dgPAAAA//8DAGJ3AuYNZW5kc3RyZWFtDWVuZG9iag0zMCAwIG9iag08PC9E\n\t\t\t\t\t\t\t\tZWNvZGVQYXJtc1sgbnVsbF0vRmlsdGVyWy9GbGF0ZURlY29kZV0vTGVuZ3RoIDkzNzQvTGVuZ3Ro\n\t\t\t\t\t\t\t\tMSAxMjM1Nj4+c3RyZWFtCnjarFJbSJNhGH6+79/ctIM6LXXTzb8085yZZlI0UDqARlCKA0NE53bh\n\t\t\t\t\t\t\t\tcswpW4V0GLpSKjGi4SmMDka4lXYw6iKC6rIRBF5KXbSuIqqb9P97nQtaeGP0frzf+z/Pz3v43vd1\n\t\t\t\t\t\t\t\tOrrMiMVpCDC2dDszDcdPaAGMAPxTm91iK3N4fIDgAVQ6S7u7LVhX2QDEjQP6Kau5uTVY79UAubXk\n\t\t\t\t\t\t\t\tU24loleKVxM+RzjLanO6JhP9Y4RvL8Vs72hp7um/dhLIqyJ82NbssvvUhwTCQ4Qz7Q6z/eOHjD2E\n\t\t\t\t\t\t\t\tpwHlYEwy4sgGYfh9/ymKY8uMPB99S63yd/wnUUd0NcKCPPcvxrLqxEG8wgvMhPUlnuExnSmMEf8a\n\t\t\t\t\t\t\t\tz4lbUjve4A5uEDuIe5jAKK7iVhh5GCcvwI/LUVHP01Tn0Ulf9bDBiTMYwBDGyWs/cb0oQQXcMNG5\n\t\t\t\t\t\t\t\tiyeU6weu0yZ44UIHbUgfLsJHzEO8Q4glYZFpWCnbzdN5NR9nGbyYXxI6qZ4HVImfN3GRTbBF8rpC\n\t\t\t\t\t\t\t\ttc2gmyIMCAHkUE3DPMBlqnMYNfQ3SsIzd4Sn/VQZVH5ZYeazK81cMi3vyIJZnpO+SX5Fo8It9UuN\n\t\t\t\t\t\t\t\t/z73ZZFDlDMFs1KTZJK55MIp9C2Y5JD0dtH40ysXyXrq9Ai9cJq6c5Z6OkodmKS3eel1N8leoO75\n\t\t\t\t\t\t\t\twrYHXUKn8Ijv5SL87DN7Tz0ZpQxzxmpT3dEjtTUHD+yr3FWxs7xsR+n2km3FRYUF+Xm5W3O2ZGdt\n\t\t\t\t\t\t\t\t3iRmGvQZ6TptWmrKxg3JSZrEhPj169auiYtVq2KUCoEzFLBAalXD/TRVvk4URVNhBGujcUDITvgq\n\t\t\t\t\t\t\t\tBqCJkL8AAAD//4RSwWrbQBBdOWla7BaUOC0uasuKxSfb+GpyaEyk3RBMi2MckEoPK0cGWaece/It\n\t\t\t\t\t\t\t\tsPZH9BNGOZme/DGlpxZ6ydmdXUlOagoFaffNvJnZ2beTBzk7SW927Lc79rut/RHIMQjm+bpwRsQP\n\t\t\t\t\t\t\t\tIHWwjoHoU6z6BzypSOJxyvgMXnuxlJjhM5uC+N0tWjG1s1rVY9602mmTrFpDWEOEsTeZJd5bBlQE\n\t\t\t\t\t\t\t\tP8kq5NmLThuOWlBpcv2n0F9IBMzHSsjUH5jVZr18TBFMK1E9RxYcePDUnEtn0I+ALGjWXqvlyiYT\n\t\t\t\t\t\t\t\t2Xoeszj6jMpF2GNG9po8GWsduf5lQmEfi5vFQQ/lCVVMy8ETiSvzMeuffnS/8oJbd+3AEe4cDltw\n\t\t\t\t\t\t\t\tjhHnX747e4o3ZlSbSt1S+HoZPGZdvYZh2MCGFWdYEIvx9Ayv0uh22vmdCgFimeoz00j3yVOqFlPT\n\t\t\t\t\t\t\t\t69L0YEJ5gg8T/S9KKR4zHkfxWV7dg/7YbGT8KTAXROn8sHAVAcjsG0b6oZuLPRgFnm6MRb6TP/vW\n\t\t\t\t\t\t\t\tIwsPOnhJUt3BBRYAek2BjAKGoT29THtEXffM8LihhVnDhyx40rQZVfcELMl+/fzbExWeg6Z9TzQU\n\t\t\t\t\t\t\t\tTEilBKNCSRWtNvMJozZT2WCgbrjEU4cBZq023xYOiGUItkysE9ReT4AYBaeOexiW5rA0CY4UDlbN\n\t\t\t\t\t\t\t\tXAdVwO+i2FBlMg5cikJdBaGDOgUajxHnux4kHNwevnEhm9Zo2tvK4xXQdfV0LlZ9MkED5pdBblMy\n\t\t\t\t\t\t\t\tce5Iv9vC95CaWZfMyyvNzEvmDwAAAP//jFZNaBNBFJ43+U/6s9kkTXERkm5/1CBpSdOAFLoktFRy\n\t\t\t\t\t\t\t\tUNvU7kZbWpLWCIoYraDUNuolBKnoxYOCKL2JsGkVE8HiRdBDwUM9iAil4LHeVLCw9c1uE/EiDrsz\n\t\t\t\t\t\t\t\t8773Zt6bN28er758SkQtzwlgzvOp9s7618y1eAZzR1Ro+Qd7xuCrnoRsEqhizKhgYjNnCF96v+oP\n\t\t\t\t\t\t\t\t4fxAqISX8EFUuZBqkd8I/UqAc2MGYLc3KiZPpOXAYKkeBQayd1IWBxjq4nSutPeUWNBjeABekJQY\n\t\t\t\t\t\t\t\tFsOkH7cJMGBIlcR4WOdkN4lq2vyP/VUSTKbqBE3gEx8O1TKTQR+tJT2VJ0lIpvAhYCqKl0UonihL\n\t\t\t\t\t\t\t\tUBxNy1UO65hiSl6hQBNTcaXcjjy5GiBE0lHKUAYyIsAIttMIEnZdXqhKhBR0rlkHdDpTAaJj9hoG\n\t\t\t\t\t\t\t\tJFOhBsYZijp1RRKhyDEbHKkmbUbMbmAFHdNbmbBTSU6LZJccUgNtpEIZGLSCyCu8aQeQ1QZoBKGM\n\t\t\t\t\t\t\t\tq0Z0uAKFskMSDIkCSkiGhcWxP6rH0vJqA8Fleo+K4qxhgmrNocNlMTAYyKrScXleyZWmFJYGbzL/\n\t\t\t\t\t\t\t\tqsD6U3JQ5NTAvvdCifuqHCaURZyNWLEGxcH70krNhP3h9S/retfTHXQH3R3YAUr9KljIDhsJTrDy\n\t\t\t\t\t\t\t\tIkta1vQDiwofiUrtXc2xpmHbJFyA2aZZ7yJc8TpcBAR0p4u4CL9GzGAOT2xHIuHwBBkY6OmGCRA7\n\t\t\t\t\t\t\t\tabSXj/XxsYjPSm1W6vPyftq9kb58WhnbvrOV/5mZWVw4p2XvQaq6BtNPn0DbLWdK0x4+0m5sfNIe\n\t\t\t\t\t\t\t\tXCOwq6IVrboVManDZvFbDpoPuYZMo56zzoznKnfR4/RgfX2MBxtv45vWCPG7I+G/7fAy3TYx2teH\n\t\t\t\t\t\t\t\ttkR7aVc00sKbWifHx7/d3rr0PZvPXz+/ocyZ5l5r95eXtc8LzpM7jyuQf/cRzsw772rP0Bu7b7Ul\n\t\t\t\t\t\t\t\t6oD96Mu2FxB0NMXIbwAAAP//VFddiBtVFL7n/k5mkt1JGJNdupudIRrBqTv5qQlZCjumJYVWqivI\n\t\t\t\t\t\t\t\ttuqgYH3oim1WaiqUJQaEPEndUIT2zUJBH0pBDeyDDynbh4LCuiDaNxG0ldJQkBWKu5l6ZluozsMM\n\t\t\t\t\t\t\t\tXO7c7+d893Lu2sNffSNmVukt9jMnP1FvSMyte4jougA5oLHwaA8OwvRomZ6P/LxEi2wfvY0rTPkm\n\t\t\t\t\t\t\t\tfE9tVmCvMHwIAHhBGQl7Q/zdqTpMH332HG3SYh+RG+GPPIUOMFLyx4Eydp2AhQtSbEnXHv65y4FM\n\t\t\t\t\t\t\t\tRC9CvbLnumTeKxa6YtbtrtyImPDU9p1veFpaD75TB3FS1LKK+9jyjZFp8r7/8p7kXro3WYj78eOp\n\t\t\t\t\t\t\t\tU6l3p5r0nNFOtlNn9ixPNafH05lMR2mWUtr4Clmb8WcgW9PqeVVRDbWoWkqo7Ex2TvWz6Z7GMj2F\n\t\t\t\t\t\t\t\tKuaHBTBvu8oMfncDc2vYnXVXzBtF8qgWPOeAU+KZdFrtyz+bz+dyUC5FtRH3H/zySXjvWngKjsHr\n\t\t\t\t\t\t\t\tl8E4vdTcXHh1Ye3TK+FfG+d/O/HFl+zzrfCls4cKYvP5w4f++OqDK9XKM9sferU34Y3IY4Vhv4rK\n\t\t\t\t\t\t\t\tDPKO/+JJOCPaBmsnIKbrHcYtxni8pvNJfpyf5B9xwetnGbB4Ij7HWCI+nphJvJU4neAxfkEynV0A\n\t\t\t\t\t\t\t\t4o1K86NSlKFkqubt6gncR2IgKAaOUy1DruooFEBfG33trEN63aFHnfXw7voqv7a6ur0QsTqCzXl2\n\t\t\t\t\t\t\t\tl9Vlf8ljQCkDO/Z0FTo4pCktZsdmq7GP8eBjnOmGbhugNMY7QuDmNYlNbKNsHDBOGC1DI9QgTNcT\n\t\t\t\t\t\t\t\tfgLiNVnPi4poiEXREkJEQkQ/rnAOFzoTxJtPZWr/qQTujEzNC4rQNUeDwYAEXVMbaAMxcrVBNIYf\n\t\t\t\t\t\t\t\tEjg5UAwFMbyhCHE3fOGH5Ztw7Oa37L2dnQ168Wpoic2dbSZGVVTWwIvFFCoT5IhfYJx3gFqAyRSm\n\t\t\t\t\t\t\t\tsAUTQskareehAg1YhBYIkErOQV+i0FWIgvKEHZILHufEcRDbYX/vLCBwuEHviM1/bmFuEU2kEM3E\n\t\t\t\t\t\t\t\tq8yyf5gblrFkvT19jrQtyScnxIQQHaksKVVypTkGY2OO74BdU/W8rMiGXJQtKaTt2HOyb0/2mnhk\n\t\t\t\t\t\t\t\tcTnRU0yiU0MscDD8v1nB4+Cq/fuj7EqZy6EzTimN0X3K+hcAAP//YmOGpl5mcOo1Y3GPebzgZiMw\n\t\t\t\t\t\t\t\tsBg7OjZZWttlZSmpaJfG7ezdVDHfysWZ6aiP999LrBcNdHUbo6tuMxobR8goyv5dqGNg2QfKla3/\n\t\t\t\t\t\t\t\tytlkgN02QQZzhuUO+QpCBsJMSgrAkkZfW0FfwUTf3Erb0MTa3FvbxSSAMZoryCTILJkhi7OIoYCx\n\t\t\t\t\t\t\t\tgKmes4ar0qDATExGRmKSvwKjgpAm2yQGJiMWfiCpKSxar69sr8ykzC+jL2Mv4y/DIqOpbC7DosNc\n\t\t\t\t\t\t\t\ta7rDkqdWZ7uFwLe3QCQESh9AfzPYAyuzLVaanppMsZFvwRxTIzcjEAcUTn+NgCVMrDYwX4AKVDVl\n\t\t\t\t\t\t\t\tJTZw6S4GDAh2NjYIw9wYyFRWUjM1MTMHMhQYBEF1gYoxkCHAwLIgOOzMjv5nwQGhZ3b2Pq9gYkmN\n\t\t\t\t\t\t\t\tN8xQkla2K7eduZqFSVRP+t+3f5crC3MZ3Q4xcjLq/zvDWFjEKLXyzO3mgrx/d2edu9f0QViNO9NH\n\t\t\t\t\t\t\t\tnGcNP+/MPiElUWCmUmLkOcaY2dW28N/9f5//Hfn7iQGaapTBpZ08wzyHHGD2lxeWFJPXFLAQ8BaI\n\t\t\t\t\t\t\t\tEshkzufJFMiVq2eu56kSKJQX4BASZmcXFm4UERUREREVFGjkl+dnqC2QYZSRl+HnhyQpUSc1ETMR\n\t\t\t\t\t\t\t\tN5FwkTIRVhFQkhLZqiAvyjHZQNBBkElQUIR9kigzvwiDvjE0YQmh5UNLkCAoGzIikhgwOFFTlDAw\n\t\t\t\t\t\t\t\tsSElOCZ2FlcFRbW8gAetl5ImWDt53nv5r+Lf084TwLw1rWOVvYXDy70s8aaeUvISfw+p6BpN//2N\n\t\t\t\t\t\t\t\tKfgvsDhU1tMsCd/17zkox5r8f8pawvqGwYBhm4OcrpCCpqmoqYqbqJtKJH+wVr5wsmaCVqVAmXKp\n\t\t\t\t\t\t\t\tOh8bsBntwMkrYC7rACQkd/x/4ODByWPOpAAk2Ji4tUWUWMQZGKQdpAOkE6RZpKXlJ4mz+LPEszCx\n\t\t\t\t\t\t\t\tsHBMYhDmrtVWqhXRFmFmkBKQUpBilpIyUjByMAowKjBiYdYHZy8hYCi8BVab9m+BHDAhCEyAoJaV\n\t\t\t\t\t\t\t\tYAR3uFIld5lSJ3eb0nTuGUocsZGGBtpAEMuqpKJubizGAgwiU3BwAZGpCQMokNiV1YD9fVD6A4YX\n\t\t\t\t\t\t\t\tJI8C0yCT58R/v+oM+BIYxZuuPg70c9wcOHcNYyaj3Jz/Mbp87v9+Ttx20y/F4YpH3+SEsJjv0rb2\n\t\t\t\t\t\t\t\tj6MTVza7xogJKQorr6q7yijtqHPVMW5BtVOKJL+2sPqs0qRDrl4hAAAAAP//XFdNTBNpGP7m+zrT\n\t\t\t\t\t\t\t\tDlM6Q6c/Qgfc2mnLtLrT2tLSCnG2CpFEJWCxgiG7IS4IyapoQEnQqgSMiUaNCxhduWCW7MFovPgD\n\t\t\t\t\t\t\t\tJsZwMP5EDh6M8WJi9GDQkxezhX1n2s2aPczhu73zPO/z8+rOfht2axF2y4z6tWbw9VLKCOaIuZX+\n\t\t\t\t\t\t\t\txWyCcKQtKRacJnOBUIgIJEASpJnkyDAxEwtrgeRhLa3sQTbPEsp0iYE2oP4vcgYhc4w+U3JHyguZ\n\t\t\t\t\t\t\t\tDiWBniksr7x8QkULywHTZ7r222u69i/Y9+DqO1OX6Riyojp0TutEqqiud/rVtCOutji3qtlQb2g4\n\t\t\t\t\t\t\t\txEnIWl5XU1dTMxGNO6LReCIVz0Rh6dKK4oo+SDJjLs1emXShKyEpJm2RiCRtEFsVSlH80xuEODsp\n\t\t\t\t\t\t\t\tuoA2tURa0TrV8LLwocIY+n34jO3HMA3jnrE1NNCLi9GIYaD/uYPZeJT8ISHDthfZ1L3EB6/YRoM+\n\t\t\t\t\t\t\t\t4iMDV7/sbMv29O192C57uiOxE+3jfw4dGaQ2P2csoJXu+o43W8v8qbe/Li2xzK15vIPxeb2D2W3b\n\t\t\t\t\t\t\t\t21J/CJuc7rXXjo/fTadijKS4Ig12e3nSs8AHTp/3NHoKZYBXPeA1B/1KRD50TOtYw4f5gNhoS0tN\n\t\t\t\t\t\t\t\tuNm5hwyQI9SoZYQ/JA47R9fyNDRR7B5DC/4ytqbaVj5h5axyypoJcHVcE7ebG+JoTvbLae6+bEVV\n\t\t\t\t\t\t\t\tkxUC551iSlh9l3bFBH70iIJ21P1vMdLhCOplghj/TxmY6IAQl46Zaa63o/PteOe1xsrbVN/Cye47\n\t\t\t\t\t\t\t\tv83eXHlWX7//8K47Oy5rI9n9N/Dfsyuv+w+MqMEk4yi8+mnX08LZ3NLw0VPt8cKpdYFe2Nnc6kfQ\n\t\t\t\t\t\t\t\t6VEURJ2anSWYrSQONuNp8/R48sRi03Vu54SkILinrYIsV08jlyzzuhnYwQd4XmlVflbyCqkaY+Zr\n\t\t\t\t\t\t\t\t9fFByuGYaqhY/0CnINKiLA3HLyqzSG4pJYBgIx+wNDDbuEnr6cpR6PeemxmFczQoyj7t8ddLE5tP\n\t\t\t\t\t\t\t\trI9mRa4297hyYyI+03+dEvr2DSX8z+wRp6t65d6n81dkpzte/iKYAhY7Vt/RoRKL41pXS1XLugFT\n\t\t\t\t\t\t\t\t3nKoYtTD2B0+n5dg6NkTWHRgLMopMQPHCW7Cu/EQprFOmAD3ElyEB3EeLr2LmMEYGK5icfUYOy+L\n\t\t\t\t\t\t\t\tyD3FC/iHye+o/AcAAP//XFdfSBNxHL+fd7fbzd3ufr/b3O1K7dyazZWa85o3ypaloARG2sxiJKWl\n\t\t\t\t\t\t\t\tJbmgmZSx1LSn/kFtUhCIL1GBQYSVZgqF/XmqXkKilyQKil4iCnT2u9OKgt/D7/XL5z+OS8PFjiwh\n\t\t\t\t\t\t\t\taqjTJqw3r7ct9gVcDZcYjhYJ7RTJRYL/UQFdkB4cX5a4uvva/ebIjo+9jclNsUube6pbh0Oq1tZZ\n\t\t\t\t\t\t\t\tP1Jjsv/8HG/Y8PTREMhtP3TS6wWz86fcSnND7bvW4z31JXrC7Vz4QPVS3QSLMd0XLqGQYLOjOuzK\n\t\t\t\t\t\t\t\tCWsMMexg2AmcTotpUBAUJTtlyapi69mjLKkoIsc6ZbJf1MHNZPmgKPrkPs5AVQf1C9Q0Q9xL2OLv\n\t\t\t\t\t\t\t\tEbxQon+JCfI8qqB7r65V5Z/ox4+cpKl4z7m3+cD0Mf0DnAY5E8+hOPfMRN+6dvhTbaavZFt5eVPG\n\t\t\t\t\t\t\t\t9exV0qGu2xfmy2de4eI3+vBmTm8ku0w6OxRZ9wLl8LyAWYuHC/nZlENIRF840omLpDnTOiDaOMh1\n\t\t\t\t\t\t\t\tyCDMbmNjLMmyHMEL/Ap+hVTMF0vnJUbiJZmXAe/SYIWXU7mtXJSLczTnkl0hDnfXlMkBHCDTbBuE\n\t\t\t\t\t\t\t\tPKe3QE3bqLcb3cwMVAM6xHpSFUWjwpnJSV21a41ta9zPKAxOaNEdDCwhTD6xZDd5T5zIZUGdJ31n\n\t\t\t\t\t\t\t\tZmIm4UmYfV/HN+730S0W1N3rTc5p5HRy5eM3VlzUCUe6kZrC2LmJAJEKt/syAhkBWOOvKWkItJta\n\t\t\t\t\t\t\t\tCnGzY+IwIcWUbr+NAANuT0BEeahUy6vwIhVVogjqRDQqVUtDAgIEElAHSqBT6AIyIaQmGMAwa/os\n\t\t\t\t\t\t\t\t+NwM11hpfjJXIPjiy1lmszVJLSdw0BThDm6ste9Rw8r/8lm/Vr9XZzLWjoIVjWP3t3j/Z3aQ+Y/Z\n\t\t\t\t\t\t\t\t1NT7ivTr9LfISLXfUjZRv6ffX6DyzpYrXcP39uyo+9TflCpzhsJnKvcOhYIb2o/V3dhORedy07Pp\n\t\t\t\t\t\t\t\tn3LWmKtwbUFBR+XeLZun714E8OCB7tXu4mfKysbampetnT1VKmZEmYGfnXARqdGgWCVGRFK6tzAT\n\t\t\t\t\t\t\t\t3sVyQZfDZ/c52mytjuO2LkdMirlY2mweABReJxTPc3Z7liiIgjAAkR1CREEEHmC9AFlDFV6owkoY\n\t\t\t\t\t\t\t\tgXFIQ3mZHIL3Zetlp4AIGup97s+2/QUAAP//Avdtv7UfgDbgOIAZH1jpSYBrPWCggVrH4ApMGFGM\n\t\t\t\t\t\t\t\tw4t2lumcHCv2TObhDc7x2R5+cA+wOG/K3p08aTFznESQ/F9tphpTf/WQ0BCrP/uAxfhZ74DJoHxu\n\t\t\t\t\t\t\t\tBSRiWG+Dx3MCHEwY5gL7eW1MwEDnAPdxTNlc2cLYSoF9HFDDgp/TgbOerZ6ThY15HhOoBcfExM4P\n\t\t\t\t\t\t\t\t6umAMjYwfcfCoxnYCNV/a8gIrHaFQeMWMbpXdAv+/dvDyMR6+/Dhf02/F7PEgto69sC2DjMwvLmB\n\t\t\t\t\t\t\t\tLUcPPmZJZlUONW4WeF+2Dbkv2wHvy4I6sm3AjqwCgwq3NZcJtwOwjizgKoB1ZEEljwGPgDmwR6sP\n\t\t\t\t\t\t\t\t7NMm8BbwskD6taasrqxhrKWwfu1OUG5hZuXiZ2cAdWwxe7baKF1bQj1bFqsn/2YvCtrHmLHvBVP/\n\t\t\t\t\t\t\t\t97/NjK+b/81gE/kjwWT49wPQt6CwjgOPulg7qAMzHhMzE4slM0qtwcLKYsXP6sBaz1TPysLEDIwg\n\t\t\t\t\t\t\t\tfXvkgAXmHfBAUBywjGfMABXkQPPA6ZY9AJjj9RguOkxi0GDSE9JTU1HQNVcy1zDVMtV1VXLVcNWN\n\t\t\t\t\t\t\t\tYAtX4hPQVNFk0hQQbgP2MMTEzcR7xNeIvxFnZRO3EW8Tnya+TPyW+E9xdnFxRgVE4paTk1FWVlWS\n\t\t\t\t\t\t\t\tV5KXb1NQFFFQUGRRUGTcZRBvUGDApG+p6KSmYKrgqhCmUKrAqqBvoG+lsFOfZ6qOgPRUNQFFfmBf\n\t\t\t\t\t\t\t\tBpjGQYmcqGTOKAGuHgpBaehArCFmimfDzADskAIDTLIHcHKCsgG/T7b/hnAmTraleybzCqSE2kyp\n\t\t\t\t\t\t\t\tBuYJpj2ymZuTC3vFWy6lTZ7CnKbopQbOGVHqPkER1pIOkn9NmWrs/DWjnW0D/+xjia3xDEoITQid\n\t\t\t\t\t\t\t\tBCsbgGEsydCPUjYEAcsGTZFMvio+UJnASlGZAAAAAP//ApUJ/FQpE9ixlwlA/+MoE4B+BRUJTAyR\n\t\t\t\t\t\t\t\twLYrqOYXBNYflg4anOzMAlFiIfJZYinyoLYPhxSbKD+TxHR+AcXpbGKioFarHKg5A+rsfwH1u+yB\n\t\t\t\t\t\t\t\tjU8DROMTXp4zIsUgpEBnaYoJCX8y4/j96LDgj/0Hn/w7Z2bZVpU4y8LMqq06YQ7TpWn/3qRllT8+\n\t\t\t\t\t\t\t\tMY1RICut6s7fnoBLpT0TYgP9rxR1TYlhYPp/818Ky3KgW0EttHYHL35mBmF5ZgFhZWFrflcmF6Ui\n\t\t\t\t\t\t\t\txmqOAt4C4WqZEiU+Pj4BKSkJaU4uXl4urjZuHhFuIAY5X8WygoeRx8mNO5y7nJsZ0tIGlSECnALm\n\t\t\t\t\t\t\t\t3OLA5jYPvxywvc0tzQBKw/bgXgl03A4+DskObJ+BYgal2Y2IB3bkNjdoXGd5emjYk8ao6XY5exgT\n\t\t\t\t\t\t\t\t90jHbsldvPoouM09ybEsJH2pmaUF059l/+6kZVZqqv/TYv1ZCmx23wI3uduVlVICQs5BUiQzaEJc\n\t\t\t\t\t\t\t\tiCHPQUqS14zbjTuUm4WHHdg/5OYGJkNOLhFOTi4hkF80gX4REhIpEGEUtuRyUuM05XTlDOMs5WTl\n\t\t\t\t\t\t\t\tFBYRtuLcKQxM3FP5+bn5OUEFIbi1glIQwhMfnw1SUwWY6GB5j3kfl4arYdzO0C37/u9Ta90Zaqij\n\t\t\t\t\t\t\t\txTydizPU5s9zltilsR6s7EAXC/5/ysIN7EdaMnQ4yHKKshpJiYoamRo7G8eLBhglGFcLlOpyMykA\n\t\t\t\t\t\t\t\ty255UJdBF8jIF2fkMxHXZpFlUFTUmCEroAAaYeOewSDG18xgImCiYMJsot0sbiLOrACLMgUFa35r\n\t\t\t\t\t\t\t\teWt763pr6KCANmRQIBZpVAA0KBAL6v2DuxWgRog4OG6Quv9m0GYIvJ+BPgjAOLX2qJMWl6iziX6l\n\t\t\t\t\t\t\t\ta++CIF/1XIvSAhdnh2OVKcftNbgEHI20i+1q5/j4GWYblZR6urqfkrZTOSlkKCGumJFqainEKcav\n\t\t\t\t\t\t\t\tWBvl12Fp5mykeoBXR1wYAAAA//9smd9LFFEUx++ce2f23tmZ3W1n13VxVjfLzB8vNWRqxm6WxSol\n\t\t\t\t\t\t\t\tQWmii5KGqBUTheQP3CjRSorChyQoyh7El4ieCgWNIPoHAl97DXrxLWq1c2eNCIL9xc6wO98795zz\n\t\t\t\t\t\t\t\t+Z5jD3UfPG4ZUSMx3nN6vq5BjpZubX+jU+pzUkoepnuMsB2uDTdZZ6wu67LlKwXGEiXFsQRjMzE7\n\t\t\t\t\t\t\t\tEovZZQ01drc9gea6OVaWLGtsJ+3JPuKSXFIlxDST8RiJhCLJCI3I7hOUFi/YJUHTFE92FXnslnK+\n\t\t\t\t\t\t\t\tyz6SrDmOg2vneLVHtqh3zHeoqckXKpgR5NT/deYkuloOpVPlW5M39VDrQNW1iL6nPnfgPmajuVx5\n\t\t\t\t\t\t\t\trm21jWUX8vnKS6WZUzZfDITH7iRT++HCgnJsa01ywTjmoA3c2XGylO4P8jJezTM0w6d8OZ6zRmOi\n\t\t\t\t\t\t\t\tjmRgDGhxcRHFAu6ZsDiasHgwEJgxjYhpGl3miAlxw5T+SxbYE3AersKE58N0gEISNpsNmXkNIfeO\n\t\t\t\t\t\t\t\tgXtHEDMI0T+OzJGR7nitB49iZ9dlvyQgOxAqJmB859KaYUD848xwBZy/C2OxDQSfxMj7wUeLgi+t\n\t\t\t\t\t\t\t\tzotQ51Dr2tl1lv35CsvL47nydBV8yU9XDiQ6OjrqaTPqf4vhuIn6NTKS3l2l1KgZjapM1WbxmMqm\n\t\t\t\t\t\t\t\tKYUkNEIrdEO/ohI5NYp6wxoe5MoITMI9eAoSo95tf03reIQSFWhQwgSGghSF1kMGBiZqCTfIFcg0\n\t\t\t\t\t\t\t\tUgN1LIVt5htX1tYfwF55iUjQs3QM//cDIdoyXpNBPqWHK5Vavk9vhCP0EDvMj4rjegfrFOf0QWUY\n\t\t\t\t\t\t\t\tBuggu6iPwzh39VF/VKUgojQskrxSuNwV3K+jzcIfZNw3jWBZgR/xJnLhNzSo0BQtWI0oBMCp0Knm\n\t\t\t\t\t\t\t\tibP9UlwgGMgFIKW2q73qlHpdQ4xz8XRvzFUI81gDSWVT2Z2Gn+4iRlKXupxmZasvWwA5fJHkVpBb\n\t\t\t\t\t\t\t\tUIwPbTn/44275bw+uZ5QPj+7otyQ4mnvr5e4AC9on3zKmd0KEivgKvjJx/TtalKhAfKI0AXXVbwr\n\t\t\t\t\t\t\t\t+LXiZ5qGmikDH2ZfFOdXOFN1/a6fYclB0QAzCkdA4IDyBNeUFqXF14LVp1/5DQAA//9sWl1IFFEU\n\t\t\t\t\t\t\t\tPmfmzszOjtus0Z+YTQayYUmaPqwRrAu1Klluspur5k/mX1Zqv5gQCRE+FCH0IPQg4UMPUWCzQmsZ\n\t\t\t\t\t\t\t\tKGi/WJFRRARBkBoRBfUgubudO7uYD81w7nf/Zrjn3O9y7uWeZqVB68EzikqHLOT3HaVSSGogRSV+\n\t\t\t\t\t\t\t\tOVOk+bVOrUtjmigpKtNQ1xL3MZgwQC2t3G1c+7zcPuumro9YysFGTP1Pyk3AtU8YAhdiT2a+4I25\n\t\t\t\t\t\t\t\t6BQWvpmN1c7SstkcO4C3otPRt3g7FuArM5887g/SX6EzcwFNHe1hiZhYIofkblkkgpL3sQiqwFpw\n\t\t\t\t\t\t\t\tEk09UCiUCtVQI1wAO4gKn89UoqSiqLpqkVVIEtXBiSopgmgTdeTO1tJsiasrC/+xtXacb8W5I0Jr\n\t\t\t\t\t\t\t\t/lB4ibufTQwKa6ZjTfiRrV+cED1WeIS0/1vFANtUr+/8DemJQLI7Y2MdSwFlvliV4pc30L5HJbHi\n\t\t\t\t\t\t\t\tA2kZabGKZfFnDtqxL39cNk7ZV+R9h+CqOBQfFubjU5S/TnkfnUqKxTpQpMuwh50GH5sBn1wGl6R+\n\t\t\t\t\t\t\t\t8EndUMC+wzB7AS62CG62BSoJg2wSQvS/XWwBVktOcAvbYQczwcNReQpuXsc+QBVbjL8X263vUkUX\n\t\t\t\t\t\t\t\t9FJ9D7sPpnwFJthY/AHl82l8Br2NcBMew2dMwXM4KeQJbcI78SKzs7vsj3RN1uSz8i+lRXlt67TN\n\t\t\t\t\t\t\t\tqS51UH1uP2//qRVrj1KMlFFHviPsiK7o1UGvtKzoorNLwjoCOMEL1aT7PSWd7IJeHQLYiR3k0w08\n\t\t\t\t\t\t\t\tgQELjyfxGB410wzwpmI7bCTpIhEhl1I/yTjJJxIGOraP4Nd5t/EQT4EbT0IQijA9nJXlK4oQZmZa\n\t\t\t\t\t\t\t\taGZk+CKYZmZGgxFcZ0bjRgT9JkaDo/FxLDdVB7WW87JXxb1QgGX0G6AUQcWyMNWDdxUeoaID27AV\n\t\t\t\t\t\t\t\tttIAW7HFGmgLNkE2YTPhPsKm8ECJ0evNxsPQTyJgI2mURw2HCHMJG5Ia1hPmEHZhlVWuwxAR3yBq\n\t\t\t\t\t\t\t\tJvodTParSWI1Bswcw+N1Ur9yknoSESuTvf8CAAD//3RaW28TRxSe2XXNmtjexW4cnOAcu6EQvLnJ\n\t\t\t\t\t\t\t\tSIYUUDaJHSLtQyySVDE8EKR9yBuW7D5im4SFQC7CbptCAKX/oBMTFIuLgaeqKRJpCQ/crAhIUy4R\n\t\t\t\t\t\t\t\tqI+04J41qJcHVvr0ffPN2TNzVjM7D7tffojqx6hWEC9jE1ByDiy/76K/savMHm9XCivpxUqctJu6\n\t\t\t\t\t\t\t\tcIEC3YvcjdxFK8scxlPRQvppKCcZz6kzJ5bgKu0gftqOLrx3aw03T505p0E0ZzKI5HiDbEoFuu/Q\n\t\t\t\t\t\t\t\teltuSzmXkaHiQ9717zNYlCpM8Rd90/8nLcEbUoLfV93w22o1GGfqyI9V7uDjF1vg5YsG8N5T7nE9\n\t\t\t\t\t\t\t\ttw7e4n5ecMDhBTqz8MMC91NWgJtzm+H89A44Nx2As4jpTADOTLXAd1Pd8C1iKtsI36D3daYJMtku\n\t\t\t\t\t\t\t\tgGxzlstmvNCTOZjhZjJUWV5e5qSit8iRolRsKSrFSDFWNCtXLRVBYx6RK1YpKF2mSt4iBcm8NO+d\n\t\t\t\t\t\t\t\t5wcvxS5xT1bq4OmKF8hay9rgGh+5S5WlyFJsif/jaCW8ngvAK8TMHH1wvwHuP/DBw0dN8KjgMIq7\n\t\t\t\t\t\t\t\teMculZOX7qyXgr8WBPgFO8RFWGxe5G8X3HADcf2ICtcKAIVUK0yOqzAxpsL4WD2cGuuEk4ix1F64\n\t\t\t\t\t\t\t\toFfDqN4EJ3Q/HNc1OKZHYASh6Lv3BHW88fthBwynVTiaUkFJt4eC6VQ9HMFGKhmGWJIqyfbO4DZt\n\t\t\t\t\t\t\t\tl6ZqUW1QS2hmYytJog9clX5YZ/aBe6MfTLwPnA4/NDSKftlev03cstW++XPxszq71yfWgr1mk8e2\n\t\t\t\t\t\t\t\t0V1tq3RV2RzOT22itMFqtdmtFjyuzesEK2/6xIrve6skpkVOMafNnMKneU4kir+N9JAUMYmkmbSR\n\t\t\t\t\t\t\t\twyivk9ukRISaXQKIXwjAtwpAdgoQ2U6ZQyVqXwdzUuTeDrZdVvMC2ccCssoskQMDs5RORtFl3Ciu\n\t\t\t\t\t\t\t\txD5mGs1zSI7O/QcGcO8b3Xr5D01UeZrWJyZq/lHRqOxhmto7wGKeKAsY4rQnSoxPfPFEPB6XP3LN\n\t\t\t\t\t\t\t\tuozRtX0djA+zZ+GhQ+xZXQgFe27o53UhmTLNGx4KxVkyPMSSaHw0l/xvlyHKoyIS5SmQeEL+6v/B\n\t\t\t\t\t\t\t\tCfm/8/obAAD//8JAccUQjGxhMUwmDllnMdAoIJDQBgAAAP//AwAJGtxbDWVuZHN0cmVhbQ1lbmRv\n\t\t\t\t\t\t\t\tYmoNMjkgMCBvYmoNPDwvRGVjb2RlUGFybXNbIG51bGxdL0ZpbHRlclsvRmxhdGVEZWNvZGVdL0xl\n\t\t\t\t\t\t\t\tbmd0aCAzMT4+c3RyZWFtCnjaYmBgYGiQ+v/g99edDPXv9x8AAAAA//8DADLsCBANZW5kc3RyZWFt\n\t\t\t\t\t\t\t\tDWVuZG9iag0yOCAwIG9iag08PC9EZWNvZGVQYXJtc1sgbnVsbF0vRmlsdGVyWy9GbGF0ZURlY29k\n\t\t\t\t\t\t\t\tZV0vTGVuZ3RoIDExNj4+c3RyZWFtCnjapM1FrkNRAALQU3d3d9cvlf2vrDcddfBmJYEAIYEvEYts\n\t\t\t\t\t\t\t\t4xJBk4EpaRlZOXkFRSVllY9lVU1dQzP4lraOrp5+SIPAoVHQsYnpez2L+JpbWFpZ29ja2TuE9ujk\n\t\t\t\t\t\t\t\t7OIa/I9ff/7d3D08XwAAAP//AwA7vQY9DWVuZHN0cmVhbQ1lbmRvYmoNMjcgMCBvYmoNPDwvRGVj\n\t\t\t\t\t\t\t\tb2RlUGFybXNbIG51bGxdL0ZpbHRlclsvRmxhdGVEZWNvZGVdL0xlbmd0aCAxNTYyMS9MZW5ndGgx\n\t\t\t\t\t\t\t\tIDIzODAyPj5zdHJlYW0KeNqcUl1IU2EYfs45m1isMh30I+oZ0widBl1YBMoutgiyH0rXVrM23fQk\n\t\t\t\t\t\t\t\t/qy1ZJlUBqlto1qYiEk/UkkaecwbZwWmIFIRDa+MSgwijCgv7Co7p3db2aSueuH7zvs83/t3vufz\n\t\t\t\t\t\t\t\tuE84sQxnwUFfXu/hM62HeQBdANtV4aqsKXExowC3FVC8qaw+WbEuZT4AJKqB3dmC0+7wTzOrAFMh\n\t\t\t\t\t\t\t\t5eQLRPglVSJhD+FMocbj3Zj6aYFwB+H31XXl9nxu2zvgQANhT43d66pVFnKEvxDmXW6n60nQlAGY\n\t\t\t\t\t\t\t\tV1K/zwnpCWrlnDKsaFSUcm+RBMgf5RnJKzkkC9cGikM7ehHCOF7itz3GaPRbj4cYwXPEWxPacBcv\n\t\t\t\t\t\t\t\t8BpfF7kOXEcfxCVxl6PsbdzDAwxiGGPEtSJI7B3cj4urQwsu4RpuYpJJ+8WNsWomNsEsVGyYOc5c\n\t\t\t\t\t\t\t\txHroYIAVx3EazTTXBFNEXAFxe4l1w4srxIYwgb+tACaUogq1GKCIp1Eum9hiOIiNcDE7hgZcwC30\n\t\t\t\t\t\t\t\t4BHN1UCTBdH5j3pNrIbVwIMPlPmMucqO0x/14HyCGssBZThyq4rS6N1CngEkh/yN9C9j59luNoh+\n\t\t\t\t\t\t\t\ttgpF8eWiee5o3rAyrJxb2ixaKRSrFL9HFIx1W3DKU9K81E+R6VKrtAf/ZYmLnjxLldYgJB2RLDIr\n\t\t\t\t\t\t\t\tedGIlgWLPCu9+qH/3irnyemkZjcpO0hqNuMU+b2kfgfpeIPeQSe9EC/dYjsCOEdeHyYxTdqG6K4n\n\t\t\t\t\t\t\t\tSD8/dZgidEafZj100GIqKd6/a8eW/M2b8nJ1G7Iy1CnJq1eolApWx4tcllFr1NoFH28UeJ/WYDPk\n\t\t\t\t\t\t\t\t6nbuMxsNqRqNJVfHE23gRcbGG8Xt9cJanzESICbniGyWMbKqRL3fRo7WoNFo6CTlz8mQPBKIO+KP\n\t\t\t\t\t\t\t\tinq7CD8/oBvxBYaSUGbLUTm0DrvVLHJ26jUAGkYoNkdmiiybwIsKyqbtJwAAAP//bFVNaxpBGJ6Z\n\t\t\t\t\t\t\t\tWFAxsAm0SMfCLFOkYKG3EnrpoFEpe4mahFkNdKs92FvpqV+HpZfIpD+iP2FWL+op1/6P9ne07zuz\n\t\t\t\t\t\t\t\tm1pwlVef53m/d9iVpxyYvEXU5glYeQpRe3mgH3T0dXjL7TH8du1Ry/bBo//5Fz8w3fo7gdCYa2F/\n\t\t\t\t\t\t\t\tDPSuGqKN47j+3xp6spcY05OiZxLzZv0nnUoRSJNFkXnfTYQlZ9pS4Lc33Pa+xzZI5vQFjIxz9Ib6\n\t\t\t\t\t\t\t\tJQ+PIEsY4rw3a0WmAGw60B4LMuVLop61YssSVG4L5f4FKmmh3IUn0u26ow84g8TRSEaDsRZdk+QN\n\t\t\t\t\t\t\t\t58zJPmRZB5b8qgXIwWMS0ei8DTeAkXYm6WKQKboYjfUGnmVica6XjLJO0o6zx6DpDTx5lWMZskgi\n\t\t\t\t\t\t\t\tEAgw0xBA2fnzjSIkdWrJEQ7P1pQ4rlxwlMzWzHOBL9R0hRRhoJS8ogrvEnBlz6Xe+0nuXQYlQGVL\n\t\t\t\t\t\t\t\tGIVXA4r+ygjOrKr3VFlVVI0dMp5RpJbAbMG3QsmqRg8pzyDn0NFrmmYVxb1HCh7K97+4+NfYxViv\n\t\t\t\t\t\t\t\tagTCnIVCbbzyFe9uHXeNy+7W50BqKbrirVVn+ms8N0mM5/UbxliKdqJDGVjx8Cc3wW+8Q5OWrjET\n\t\t\t\t\t\t\t\tjWypiRmrJ7y6k1P4SGlfy48hTmov5acQSGmFuNLglJF+IzZGwEfChmaX2luU6NMGZIptOi18eSOW\n\t\t\t\t\t\t\t\tO7AGoe5wrxp46u6qfSmqfYBq+McU5exsbzXo3tIJWvd17WfPifT1S828qLkyYxnK0D7Cwr6PvwAA\n\t\t\t\t\t\t\t\tAP//PFZNbBtFFJ43s7v+2VnvbhqbOI5/JraDVKusa8dbrFjajdSghKgOBRypQRsjFC5cUiQuVSul\n\t\t\t\t\t\t\t\tR4pEw88lAoTg0ksrLoQ26hGJS0UvPXCgqlKkqipSQzhEtKTxmjduw0rz5tud92be++bNvJWvibEz\n\t\t\t\t\t\t\t\tgxnQkw3pyWCPSYRoePFjN3xDowqRzbl97/ZAHK8KW9hlFIBa+xdV8kz2BAHBpLtDMupNpUd00vSL\n\t\t\t\t\t\t\t\t7Boob0evxc0IRHwDqoZvUHI1fhEAjqpXI74CihO0HvSwBQEZwNaD41UQdtEWDWHXbaHe7G1f6W1T\n\t\t\t\t\t\t\t\tcQWLV0uC76jobeNKX4aXqYf3MyMNf2IUjkKFNkiTzpBZ2iFn6AoWul8Yp5QtKliN6CieLCeoO8Ta\n\t\t\t\t\t\t\t\tqzm4RgBQPEK98OEXP0C29yFdl973UDwezFm4ThchSo7BVv+RHzdN2nHAAwpOUNkh3g6yULTr8Hh3\n\t\t\t\t\t\t\t\tF7UpudT/Q1lXdzHqIrnhj7vQ1Cf51NDUyGRuBub0k3x+aH7kZI4n52JUzLG4OW30n6K2Dj5ZImb/\n\t\t\t\t\t\t\t\tgHDCX+C965zTjinIVv/vTbkwgj0/peuIRuQQ+bZslvNlmonq+hb4m0sZhXMEfnwpw6VCRmho6x+R\n\t\t\t\t\t\t\t\txpoVi6Hk0lzbKFn/VCqVHWzB/wijkfEEYFFRoLY1JApD4LqNyYmXJyaK41pE05LDqZdSqXrNVdaf\n\t\t\t\t\t\t\t\thU/DvSf7EAP+JPy3mE6Xiue6y+dL4+lUSZxbWb5A/wxXw0twAT6BT+F8uHbw0+m7X23cb59qtxde\n\t\t\t\t\t\t\t\t/+vyN3fear/ZRpohhbvSUn8jJvn1R+MwlMQhMKxBTPgFwbQx4EZBngzyHLND7LtL6muaxlmCzULU\n\t\t\t\t\t\t\t\ttPM2VWneBNPkiQEbCYNzrZMoUI+tsrOMMW5ZtMO2+vd9XTLEUpIhJknOSpZYTloxzTBQWoahoZQz\n\t\t\t\t\t\t\t\tMKfy4gnqyFuz5gROPSBer+bVHSQQng8KmbiiUXNPuO4JTGCldfA7uOEt77PyKw3la6husIcfJ4fT\n\t\t\t\t\t\t\t\tp6b3f8aM+x5Z+Bz/nQoQ9U+/kX83T1Wm2SmWtEv2lPqq0Uh4WS/XzM+rs8ZMYiG7kJvLd1mgBOo7\n\t\t\t\t\t\t\t\tsUW7m17OBGPdbDf3AVvR3rffS67mztKP7LXRtbG1XBmDerQpfacyi4VExLTMY1FnrGr6/wEAAP//\n\t\t\t\t\t\t\t\tVJdNTBNBHMWZ6XbZ7gdbahmgB5Z2DViWdgul1C21u1JEWEKUxBoo2ZBoxBRi9EAUtQlGD+qFxHgR\n\t\t\t\t\t\t\t\tD8YTJl48gAdNTLh4Mh5Q48V4Q24YEhMPRhLnv80iNM32TTPTj9+896aVWdlyrWaJ9EuCBhPJZVkW\n\t\t\t\t\t\t\t\t7CMYKzbiFMyd5A84lfOcapEyFyUi8CMi8CMMsCNAsRVelBB4N0Lan8XkmBLDlPlKNPibQoOLS4pC\n\t\t\t\t\t\t\t\tDBkuv500POP0pOgFOZRgP9CjDgT7qXSU7mWawuBEuEeZR3+Dlc/TG8srD6e/XOJP71z9gRitq7My\n\t\t\t\t\t\t\t\tNr910RfdLK9Pvf22tHDPGvyk5r6/Kz0eLCyOVt6fg4S/oEmtUt4n6natSUHw6xGhSY8LHXo8nxcy\n\t\t\t\t\t\t\t\t4Z5Yn24Lp8LFWFE/j6b8U0JJnxNm9bn8onBdX8jczkf6ckM5PJCj+4ASjQmcSMRtJdCDZUmRsCQ1\n\t\t\t\t\t\t\t\t2gFePcRM3WfWSis463oyy4C7siwwyrYlyaEFZH9BtEyivmRbLsuIvojrStF14nNTNhUTi08LwW0n\n\t\t\t\t\t\t\t\tuK1pjc1GkOLUdb3GtQ6QOmbIgAd9zzAcCDghNYhqrKMzk3YDnd0Pupqhw/+hr1GH2MOaJkKYhlTB\n\t\t\t\t\t\t\t\tLo59uFndHZdL2/PmcncykU4k7tjl4Sevk3HtQmHm6wxsxpXV4oj96kaqij9qdy/PvjSHiwPq5nG7\n\t\t\t\t\t\t\t\tK949N3G20qY0ry7d6p+IRMJDhU114Fh36sF09U1LA5emTTpO87BG/x3wNNuTa5xXBwFPIE9gT3Be\n\t\t\t\t\t\t\t\tUwQ8gTyBPcFR3rU5nkCewDVhxcqMFJaOSn3SkHRNYsUWIC1KI9RwIlsfkEaRn/72BnOzJb/fV+/z\n\t\t\t\t\t\t\t\tcSZ/hsf0bFBkXC8y1PrrsEdU/LIaYBrTzgck9gyL6CGyZQkQEMTDFDr+sw4OoOKn1QtzEZJZhTVZ\n\t\t\t\t\t\t\t\tH9sB9cRit7xbDpS3axzW/Vis7hWRK5yQkXYryXB0Wkh023Utv9cbMgzaSveDe8yGhhztwA2pcMD+\n\t\t\t\t\t\t\t\tAwAA//90l29IE2Ecx5/nuZveltu6uS2dXdudTp03PfS2rkPELbX8m6OmzKulEIEoREaR2ouCkF71\n\t\t\t\t\t\t\t\twkCIkgqEfJeFsbQgDaJeRC8iKoQMSvJV60W+CXRbz7M5Lch3vxf3cDyf3+/7u8/5oczKPAvp2eXF\n\t\t\t\t\t\t\t\thILezS0nTyUW4FQyCqdWqeaNc+heoo9k5hnOzBjuSQVYnuWz3IRNbh7NwDgYkalj/GydvY1pZDUm\n\t\t\t\t\t\t\t\t7BlgRpk8jnO0kC9VwE25A5mnCzQ33+rO2YfMBidmZzC15hhcArOLtCmmCa5ODnJzqR+BAnJlzk6u\n\t\t\t\t\t\t\t\tzJkIKS69gznrP0mxbiWlQLPywMXpQfoIuOs1e51epL8tZgLCqpl8pGnFRWk7H5IYTRAfiOL1DXdO\n\t\t\t\t\t\t\t\tB04Ey9t4NhsKeqz9YPPrq6PfjpiOfh44PObzVvol38SJyFQtdSURFDV+JNYeisCl/ufBQ21yyXtf\n\t\t\t\t\t\t\t\tS3mNONzZMeAqdRbkodRM8jxNe3zKg017mNbFgQAU8DIg5xjtRtUtV8tKi/tgdYPSC7uNIVeIP81f\n\t\t\t\t\t\t\t\tqDY5KE8Ll5+/p5WjzMiPVcLhlSw7LJwY3jfAosf+8HNbJNJjCNLDBAjp3YQumFTNqlNFUjZUUkYp\n\t\t\t\t\t\t\t\tZjWJ1+NTMXJcf/MAloY4cYdVApLNMMVjRhTComKOUtyiEpZWQCiWIr/PouwvIchsxYQiyM0CzP2v\n\t\t\t\t\t\t\t\tXkwnPyydedzUHe2KRqB9vjbkMewdqv2UArbw1GDveHuk541SX3W2rutGB0JBtWqwfvw+XFlJfm1s\n\t\t\t\t\t\t\t\tOAYtL17BmotDlw3GBXNRcu277C/21z29Hh2tdFnLK+we550nfq/nEZnoW3jLTOCJzgHDQRa7xO8t\n\t\t\t\t\t\t\t\t/0J/1VRqPQM1IGt6aEAlsBm2oQgawemHALqwW+IfIqpVRyHGzDiZS4iiAEK0Gb8B0BKeMJxEi0oi\n\t\t\t\t\t\t\t\tmWBVKR3G+LVFSGZNxPoJsSrQE4mTH9HbjYfUOv1r3aQTZoh5j6a+0JO6NVAIyoEC++dBKV4uRtwD\n\t\t\t\t\t\t\t\t99xmUZItirOFQLrbRapK0WeTBV+ZT260BYXGsiY5ZDteqBVpzrDQK/Z4e6vDcljp+wMAAP//4kji\n\t\t\t\t\t\t\t\tSxJKkkxQTlAv4ysTqtZpE5JlY1qptkyfSU2MS5+FWdZdgMnUA5jEUJKXFDh5gVpevFFSCgzCjMLC\n\t\t\t\t\t\t\t\tDPpcvJooijSRKj1NRQYxNQVozpwLSWgKsISmwMLDC05oCoq8IA+Am9q8vEYweSNIQtwaZaTINh2Y\n\t\t\t\t\t\t\t\t/oApDljogRPhE1i2BlKCxvqFb6FtWSFxy1hQx1QuUqdTh0lTx4jZVF9T30zZVTlMOUV5phqblIIy\n\t\t\t\t\t\t\t\ts5qsIEgdmIgEJllIuQhKtyqmJmbmpmpqpiYq0GYHsPZjBrdFIAlV3MxMGJx61cFJF5Ru5/y7/OTT\n\t\t\t\t\t\t\t\tv4cTmiuKGUWu3mfkqqvqmfJ2aUPdwsAg1W6nZB/5wDL9gtio3F39k9Yzzj/4n+HX4ZqT1mwOM4pW\n\t\t\t\t\t\t\t\tPLi2NPWwOZvNBib/7PqKNI9MTSErYae+v8Ux+RZiakqGK7LaN0wDlhKF/x+D+xigUmKLgwkHiySL\n\t\t\t\t\t\t\t\tJouNqo22qZ6Pqo+2s14ES7x4rESQdAFjtSq/oKyRp4impwibLLSUNRXkxFdMcEpBuhngckIA0s2A\n\t\t\t\t\t\t\t\tRJUOLCp0oN0MoSgdRSlwt0KKBaRQahqoXIAXDNBiwRLctNMHl7GwUoGJnY0FUbwKmUMKW1BQM4BL\n\t\t\t\t\t\t\t\tBSF4qQAvEoBFMEt/ZFT0v3c7TWJUuGSzHO/+Foldkhgz1TsiklHnRs4O19CYUw4W+jn2E5abOejm\n\t\t\t\t\t\t\t\tOPktcGNkZnY6/O9QQVENNw+wLGDkfGlhoGJiu6f5CaOcs3Pwv99LZu8x0VXfsji+QldeVEtDVBPY\n\t\t\t\t\t\t\t\t740C5mVPllhwv1fVQYwxjImVLYyVg51Bl42RAeRbYJ8F1P2z+WsD7TIBq1FjYEVqzOT5HgiYHRhl\n\t\t\t\t\t\t\t\tfy8GDQYzMWz4L8fuB4wrJwZ/hmsOi4C1OQs3KxcnvzSfDL89v4MYkzyLDKu8tLyMiJKIury9vKMq\n\t\t\t\t\t\t\t\tkw6LDqu+tL6MipKCur69vqO7g4tHmIcsFyureqRnHmcqb6ZUhmKqepp9mmOJWLV0gXqJZYk1vxCr\n\t\t\t\t\t\t\t\tIIeQexCfiIOotLkIC4tvMIeurlYgH4etoVygoS0Tvy6jLqugs5CuiJeQPTcjN3+gQiCThKYItzk/\n\t\t\t\t\t\t\t\tAwAAAP//TFhtSFNRGL7n3p17t9tybu1OLRwuN62uMdHNDxC9GWFNigoVXcxvMdRs6oTCwaofswgK\n\t\t\t\t\t\t\t\t/CMUYWSaFPTHaVl/Rh/Qgn5E/6o/kUREwzKoqO3We862crC793xwzt15znme5z0FTAj+LGPfWTl4\n\t\t\t\t\t\t\t\tGA4WpavqOFiIuLM8WVZGrER5nNA7NDnh+0KGJxSpWlI0bcUUQWB5Ap8b7AQRTLa4yF64XSPwrGQ2\n\t\t\t\t\t\t\t\t5Vg0BEWJdLRvUAQNoI2MGayhi3DoSKO6f5vnfOtC7PudA/49M992ycdaW9XE3HX1R0fnieMdPUi8\n\t\t\t\t\t\t\t\t1nKvqWuh7YH6aHTsTDgQQLVLT5BrYGAkebmut/rsVGBib5idvqgmBgM1irr6HmXZbKWJ5cZ3bTeR\n\t\t\t\t\t\t\t\tvrOzP9Ddra5dmVPXuvr6LbmXJENodAzVP15BdePj4aDfrz5VFZbPz4vMz96qJUhuZRjcDkohgCN9\n\t\t\t\t\t\t\t\tu0j8Nz0Lmkyg6Igv/EmzLD4TCOQonSaRh98nsDqdqGUnYfeYYRidyE1qkMaMMR/kxwSWc4kKcXyi\n\t\t\t\t\t\t\t\tQoS4VFREv8iJOpHnEM7NzmaasdagR+BAOaxn7Ew17CkvM8AEYChmWA9NIpZxBT6Im3EfnsAC7t0E\n\t\t\t\t\t\t\t\tngeyLIAzh2iPXFMHmAHBkR3rAzvoi0ajqR9tlPpChgiSrZCzcSBJWxDC7a+mksGpGGtF2qD6W/2F\n\t\t\t\t\t\t\t\tZtQu/DJxin2TdMCWeQZrIsOaSPA+5ahRMWG9pC/WN7MtUiiPNxlLXFZilbMJl1itQr5Ly+12CVrL\n\t\t\t\t\t\t\t\twwz7LHktkqnE8M+OGApoHnr/z7piJqtgKCJpN6mFp0FwAG/9vyFxZEZRRK9DYmg2D9z1IWNxPkbS\n\t\t\t\t\t\t\t\t3madWmwIViNkONKkGGkOPOI2uBU3a91IbZtTNyglZiGLjAgQJiLk3SB4nbooELSEBQTipsgMEHyi\n\t\t\t\t\t\t\t\tM0Dwlc5AgmWK/5CLXq/QT1KWy3yZIs15U+4diDGtV1ARp17dl3agNqNtY+qF0hka1BI+TIkP7USK\n\t\t\t\t\t\t\t\tWG5qaIpdTX5BK7M3PEc9Q97pu+qifYcz3PMZMb5hp7M4VNFQeqFbjSH+3Ly7yoWen7xdWV/1FwAA\n\t\t\t\t\t\t\t\t//9ivSihpt0elzVVl0P+NBOLmZe4NO+/IGE5ufi/s6KyVCX5/16TVlFPAbWXiv8/ZXVjfQPsAcxw\n\t\t\t\t\t\t\t\t8GRl5OVkExFjlOYUEVUVNRN1FonmiOCK4IsWiNZIYE4UKWAq4y8QERYTkzIRYtLSUjNh4xJjKAS2\n\t\t\t\t\t\t\t\tyBlBjXJ9HXudfB1W5AYApPGvIMrDAxXj4YDUNAJRPCKgOOCRAYU8T4Y2JBhBNQ0wRG3ArXgQBgWd\n\t\t\t\t\t\t\t\tKhuk8a6CpdmJ0sg0N2Z1M4/0sO0PW/Tve1JCTkZSPCPvkor3k/irP3UVbnV39Q11dtud0f8rly9H\n\t\t\t\t\t\t\t\tQktcWDo6MZ5R9dAORqWUxDQrz9fpcZ6+3k+nzX3k7uWelAQqI0D5YRMwP/AxyDLcdxC1FPIUymTK\n\t\t\t\t\t\t\t\t4GURAyZ8cWDCL2Ng5IenfaCn+EUZuMCplg3cFt/x/xG8eb4FXNGAUhY0EX8B5Qhgki2R55fXl3eQ\n\t\t\t\t\t\t\t\tT5BnEYcFnTg81YpTJ9XKIVLtW9gQIZgdC6vxIJU4JIWyICpsYCUISYubNk5O+332XwdjyS1GxsgZ\n\t\t\t\t\t\t\t\tq85XVUYc69q1q/9qZH4+0/PT/7ZF21uwXrQ3j/935Nr6D65G6r+btSzdXwDTGDAUWeqBocjJsGET\n\t\t\t\t\t\t\t\tqykTqAQRBXmAiYmd0ZSDmZ2DgdmfG9TC3vH/igM/OFBSuPm5GZlYYeHBCg0PgShWRnA3naxQeQAL\n\t\t\t\t\t\t\t\tlTfQUOFCycugzPxFG1w7QrMueMAa1DkEZlCW+r/8TO1/K48xb2dV/Bez4a8x0Eeg/POYdREw/6gw\n\t\t\t\t\t\t\t\t8jlYszNysrHxybIJ8ynymfJ5MjryBfKlsqVyJ/OV8JXI8CuZOigzKivzMAsIiJvwMMmaMHOVcTIq\n\t\t\t\t\t\t\t\tCShxCig68gILQm5oQaiINByq+P+fgzDIS4o5DCzgtCUATVvfYGnrCXraAgAAAP//bJnPaxNBFMd3\n\t\t\t\t\t\t\t\tZjLpbpJtks2mtRFaSm3aqpCStVVpJduDUKGI0NuiGA9RkUYt+KOI4MGDCP4B8aBY/4AKNod6irAa\n\t\t\t\t\t\t\t\t8KjYg4LtrUJL46WnlN0682YnLuohYXYJGebN5zvvve+ABwHn4r4N3bVyN5/M23mckwHNSW3mslqi\n\t\t\t\t\t\t\t\t48QIbfY4msGn0ECbWoL/lXZ9OIhVGB9wmVnhUCgIjKxCmj1c2hWqjQSSTSmcKK5XqACVNH8xeZLf\n\t\t\t\t\t\t\t\tA9DXD/zNJyv+xtVrt9EyWniEtOfGwL3TZ9/cavs/0DiKlhuz/iKev3lqvly+goZcVEEvzpzbOXQ+\n\t\t\t\t\t\t\t\tNzDmN/yWv+k38v2ouiI4o1NsV+Jo9C2ZUDlnJoRITalYVWmMNXdU1fBMKhRfHCqcsUxGqw42WdPy\n\t\t\t\t\t\t\t\tXuaZdj3IRXv1IPhbgjZFlaG3h+G3BuyAgDgDoV/Sk7qtX9CJSqTDQuQ2ENmME5PVGl9gFiqZph2m\n\t\t\t\t\t\t\t\tKcxCJcpUwg0DPhUfANN0IfEP051n8UIpTZem2TYtHhN3HZxui31bdKrp9TWb+GcTf/NG6GdvDc+y\n\t\t\t\t\t\t\t\tqD5lB+E6j6pSnxn6v1MPDv6fMJLQOBLK76TTOh5xtEgxSmKkiFS9GlPjTswkFDuBgw+2GFk72ADC\n\t\t\t\t\t\t\t\tiSScDXxYN+HLBRe/2lnuXjHlsc8W2M5eMezas1J+YjDLy/l1r+66eM51a5HlWm3/Ms+Axw928DbU\n\t\t\t\t\t\t\t\tPM9s4wZ6iLBhZUlXV/wE0TIZI6hQxCoNubJVxzDheA+4aEsttqQWW1KL3+0+QQYwgYGJ+73JXhSt\n\t\t\t\t\t\t\t\t9HAPK6QlqyA6K7i0Mf/2q7hg8PavT+OvJuNjS6WL1dzhpP8RI/T4w9d04l13/9GR0TtzpPJS+Q0A\n\t\t\t\t\t\t\t\tAP//lFrPaxNBFJ43P5LM7GY3bVyzUVkbS0DMQdG0JAdxwXqop0JrmoYuLaXFHwdb06bQXupBUARv\n\t\t\t\t\t\t\t\tQj35T6QXLxIQxIsnL+JNDyIeJPRQobiJs7O7JQVF3NOyl9k33/e+7703I6N6L3OhpXLBcDfyvAbz\n\t\t\t\t\t\t\t\tsszk53mF3+R3+FP+kSdNENyBPL4AJV6FKh/TJmGS39DmYUVroq1UBmPyBN4BhrYMOsXbWJP16yMB\n\t\t\t\t\t\t\t\tKRylkhRtIcz0CLqEXESn5LL3JdUhNcjvSLeJorCkufEvjh9R+4js+zHH9//Occ+7HM6rFLmrYUHc\n\t\t\t\t\t\t\t\t6Wz7Nu3A48y279lBTfygWShAUjEergBr9fp++7nk/IeufxvvvuwlZTH8k3B/AkV6ciD3UIcX7lhN\n\t\t\t\t\t\t\t\tQAVX2LhYxYtklS2KHbxGdtia0G7xmmhoZJlskJbcZIEJT2CEqRt3FEvhhLTUoKofoG4QKVVdgZR0\n\t\t\t\t\t\t\t\tOkFnqHySGicg3UtoMhOUHeh/lKhDN63M8wRyYlFyx8PRX9jiKwKqaTQ6pdawFfP0UI0M0zhrTBmE\n\t\t\t\t\t\t\t\tpaLfY7EqRW7rnmkwdfDD1ChRWm+w59lk5v8N93tsuD8iw00fK0NKpUEvUV+GcjGEF8PBzfWZ+l6Z\n\t\t\t\t\t\t\t\t3qPYmwvuHyxT8OZk9xPg20ReU+oXjELgzwAFdvC2t7TZW3kFBjyDh5Bl5NcuuXvoS1DfkKuynlvv\n\t\t\t\t\t\t\t\tf2afWBfl0Chk3HMU0YSma8M5lEvk9fzwLMyy6eSCVk/Xhxay07mMFZy22kHgXIW/ybcsfLps4UKZ\n\t\t\t\t\t\t\t\tC/vYUa89IHTyXQVsW+R1/9ugXu5FyvY1FrQvsaB1XUsp2nrRLEIwW79WJA6NMHIiaNINR8HhWGYM\n\t\t\t\t\t\t\t\tn6nHqJnKtc2TnP8GAAD//wKSbOB+F1gxf4YKUicF3MCGc8DVNjCkwQ1AMSFRSBsQtaktLMAAqbWN\n\t\t\t\t\t\t\t\tjRhY5aITkyNjfi+c++9/VFRiQkwEI+usBf/d//15+PjfX0aOe/cY2VnVUv7d27Hj393E1LSM5GRG\n\t\t\t\t\t\t\t\thZ3bGBXTkzIy/yYyKjFaAzvi9/7dBnZZzKEtbJZpwDwmwCDPKOWgaiViK+st4i0bwBfCn8rPLmnC\n\t\t\t\t\t\t\t\twC7AzsTOzilhwsXMycGvKK/IJIjSaRSEN795owRFIUVRAQMLA3LAMyDq7R8O3OD8ARsm/wCr4l/A\n\t\t\t\t\t\t\t\tmkyvoF3JfEV+RXtFJkl2SBm2JYodGglcUewinOBijBOWGzjhuYETnBs4YbmBE5YbOGE2ABlPwYmD\n\t\t\t\t\t\t\t\tM0cBvSv5BTYNDWpkQVuhsW+Ruo/g2R3kUXZY85xlmqud76UFx44xTmnb5REae87M3KA67sjyimnA\n\t\t\t\t\t\t\t\tTiILf/JKO1/fv8BaXNfAclW7b5GKvPTftdr6BlnQPs4MaAxoOBhyMMoy6jJaMVrKuvJ7iHjIRjGG\n\t\t\t\t\t\t\t\t8UeK5DNmMiVwpXLXMZZyC4IqBAEGAXYpEyYH2BQbE7g4A5FsoQ5MjExMrBIm4DoCFGUOisyC8G7S\n\t\t\t\t\t\t\t\tNmA08fMy8oLiQhYUWLwyoJDiBbczecGzYLy8AgrA8hcUF1zgWJFkhkUCtGpxEIxi5gTPmIowkFOl\n\t\t\t\t\t\t\t\tfITWJIgoMALXJPrasZaWsMmkWFBR9BZaFIFHOsE1icQB0Ew2ZCkLvDMvjNZdmvHv/z++fy+PMS5s\n\t\t\t\t\t\t\t\t3+IRGL2oL1HXRLss4OWJuB5DXW2mgL8bWC8q6xrPLl9405xxsUOykqz433OKulq5QH+3AfvkTMA+\n\t\t\t\t\t\t\t\thQGj/04GfWDaBflPdweUoQcq8HtBLAmwx8XBpBiYFAW3n0QAAAAA//8C90GB1Yk8g7I0h4i8JoeG\n\t\t\t\t\t\t\t\thIq8ir4lh5mAhbCpvJmWF4ergKewq7yXuotWBFOodKh8qG62ZJp0qnyadoJ+tViBfIFCiVaJbpuQ\n\t\t\t\t\t\t\t\tMqcDn4A5B4gAVmqCUhossmyKiqom4MFnYP9fUQNW12vA16poiEqBCyEpYPbaCgpwKUGU8WlBWPbd\n\t\t\t\t\t\t\t\tDkwKDIpSnAywAhGUIR34wVmzxIjfqMCIiTPLEDYTDp/pA5HwEQLQOD9oTkA0QjBcI0MwXaNSsEyj\n\t\t\t\t\t\t\t\tU7BNY7rgTA0u0AwAMC7h06MisKEEYLuKBT4trg6bEwD1UlQQ0wFiYqxMgZ4BV6ct/Pe/la+QUaNp\n\t\t\t\t\t\t\t\tx9nEZO/1Scf2M9p8ngtswfGF/ns9cf7BhEqHN0HLVjCuDF9l7eBhY/0jLq2rODlOSkRKROv04t3v\n\t\t\t\t\t\t\t\tbXReecS3ZMRmyfBpiOpsAs0iAcu9d+DRx5WO4tBWMi9SKxlPq9pBKoqRxZSNmZmDn1Oe05+TmSGa\n\t\t\t\t\t\t\t\tkQkUeowiLMBeISjLAJsX0f6soPHLVw7c4NzBAc0ar7ZA88QnjDzxHzzCyQqbgf4CLJSegGe4YI1p\n\t\t\t\t\t\t\t\t2Ootlnd/3xz7+wbofsVf91kVN4DaSjEMDOy94LYSmyOwG/v/F9zdPP8/QWIbWIICa9t9UMHfkNIZ\n\t\t\t\t\t\t\t\tKMgIKUNWR7kzpzNXMjPzMnIzsbAwsQJbKNzijJLMEqySHJLcmsyaHJrc1kyWzEYsJhw2nMZcVtze\n\t\t\t\t\t\t\t\tTC4sLhw+nM5c3tyhjFFAX0exhrNHcoZypTJmMaWyZLFmcaaCGmosxRw1nEVcNdx6PCJAx7KLsLEC\n\t\t\t\t\t\t\t\tw4+RGdwS4wSTDMwMnKABB2CxwsbExszEYc1gwubN4MJWxVDKxsZQBGw12fPF89XzsbCl8wq8AyZJ\n\t\t\t\t\t\t\t\t8IS8uGUseH0LaDYeiBhjwUOu0FlAIDJmBCH23n+19/8d/3fu1r+y04yWjCbA2o/RnPXiL32WK791\n\t\t\t\t\t\t\t\tWC/+1mK59luO5RGoRsz4/5BFlqWCQY3BmPEDMCzlkOYtZf9/gPag7KN4uFiUJblElVm0hUDxpgMm\n\t\t\t\t\t\t\t\tdcEkAAAA//+K5AuUi9HJ5EuQzdet5qoSKZCt1uFi4tCwNRB0EGQSFFTgkNn9/xTUJJEofxlGGRkJ\n\t\t\t\t\t\t\t\tewUWQ0cOYOueX5ZRdvf/b7BIkxVUB/WYf+DoMX+AZWVTcDAywYa6mGCrJpjAs0/gtUpSDLLcDGzg\n\t\t\t\t\t\t\t\tVqsQvB8tCG61gtdDQNuroJIcWj2DV3KxgbvVbJCmrignJxusgz3RlN9U3tTelFkPND4P0gsuHPlA\n\t\t\t\t\t\t\t\tWvQ4QFr0YI1bPchKhM1RetLcwO6agwW4iAR3NLk5QDq5waMd3DxgNrj1xC0GsoobvJSHG1wPccPm\n\t\t\t\t\t\t\t\tBrghja7NUdytSOPB8FYtdBodAgQtBf7C6hhQ/QKq18GLFLQhgyXgGTRQgollAI3Vm0JHO9VAk5Vm\n\t\t\t\t\t\t\t\tKuZYF+4wC7JBRz5Bc5SyuyVDNfSrgqZfyk1NY5RboqulUWDrtS2Ry/xCatl6B3un3WEvXQJTSsqT\n\t\t\t\t\t\t\t\tl5QL2gqJy5+YXT9XV1eBQ9YhREJcQF11P7+Kur7epJx/ssBEKSIsnhiakOgLSos7gWlxApsIgzCD\n\t\t\t\t\t\t\t\tAmOkg6YJkym/taiBgguTK7+3qINCuFC6UD1HtQwPHyebuJMgCw+jnAMbFzeHiKMw0tCACFICFkFZ\n\t\t\t\t\t\t\t\t4/EFXOKI7ICujBSRRl4Z+QHWZPviwA1OFnywlQ1bwElgB1Q7A2hVDqRzPUFJXsleiYlPmpMDtioI\n\t\t\t\t\t\t\t\tvoQI3rnh5IEMa4GbZxwgozjBXSNOKR7QiAMoXQAZjyBNCB6wYh7IOAuY8c2BG6SThw2kkwfkTPBy\n\t\t\t\t\t\t\t\toh3/328DuYGnQxG1cwqJd0TbDpJCwIkA1LaATJ/CVqewgzqmoFgWgkxLswtCVk9M8Hd2X5UW3+fK\n\t\t\t\t\t\t\t\ts2GP/6b8Y08PtUwOWuERUOw5ZyOTec8DH39/XTUTNpG/VxyD/134BwAAAP//enbivLvF3wYVmbPA\n\t\t\t\t\t\t\t\twi7z/3PmzyzlDIoMnx18+JX9lZm0GZX4tMRUJKwYTfmsxEwlPBn9uVz4/MUcJSIZQ/kyGVP5qhiL\n\t\t\t\t\t\t\t\t+YQFBETseVgUFaXsmTn5lcFdV2XwskJ44/keLCbugaIIyOpVFodlOHFY30Uc3ncRB2crcaTYgQ89\n\t\t\t\t\t\t\t\tckHaDgpRnODMCBqKBMURuG0NbktwgsMb2Hj+AQ5mzlYlpHwHDlMoH3nuIBY8eQCdiRZgQJo2gOQc\n\t\t\t\t\t\t\t\t8EJO5s9xK+MrT3l4BjDqfk/Y6csVtj18wc6tSyzL9DU9RLncdI3cPTzuTGYUYrQwU7/o7HH9wqmb\n\t\t\t\t\t\t\t\tchKi+oLA/JEDzB/O0PyR7qBqI2UgY6HgL+Uk46EQwZbBViDAKcTIJMgq4cjHwsgh58TKJSjCBMwb\n\t\t\t\t\t\t\t\tyGXpB5QFKohyFVspygspRZUcoFnkm4MyuDAFV+4M4Fk5BnCCZdACxxAXtDh95yADLkX5IetEwVE1\n\t\t\t\t\t\t\t\tCZJXkJYaQyNFGpJlHIRha47BI8jS0hywWOOAxRoHJNa2R3GAF3Vx7Pj/z0Eb5AgOsCM4wCMRHGBD\n\t\t\t\t\t\t\t\tOMDLIjnAGQ1kEJBsVcRaciKJ/YXlHgZYZrEHxim4iFRWYhIElY/gAlHQmBl5vpnFeU/ghvQTrwNd\n\t\t\t\t\t\t\t\tXbYmRnR479njU+E+b0PHtIAlpW5+jCaMgn33/HwCVNUZn/z6z9SoJHXn1PHz7sDYzPr/jCWBpYZB\n\t\t\t\t\t\t\t\tAtgTUnRQV2PR5jVgsea1kXNm8eb1loviDRDL4k0Qr+CtkuNjtJGX55exFWXhBk0+gtcOcnOz2/MD\n\t\t\t\t\t\t\t\tyxJFcEWoCM4qkqBhejAD2AJGRLUkLAkAW8uSUgwK8CkhYXDc9CuCek32iszy8MWM8JWP0GWSwOhh\n\t\t\t\t\t\t\t\tBIcsaN0hWyijtBAseoR4uAEAAAD//4JEjxA0U2lECYHjRwgcH0LgrCUEjg8hsF4hJpClQq0KaCPF\n\t\t\t\t\t\t\t\tsC4pJGaMIU1ubXCHCDxAqYiYdwMtAlCADBEIiUKrK5aEPyftzEz6w4qeG3LFH8v99+rfCUbtL4++\n\t\t\t\t\t\t\t\tbmecPG36Zh4m6fSZhgYG0TpnNcyAPU5RYAZz+vfjs9aURZtaQC1KFwYGZiE2OQYJRkZgK0gAKfT4\n\t\t\t\t\t\t\t\t4a0gwygpcF6QAvc+OUQsRUpZmYEta3tRBm4+Ow5BVl4OBmDzjomTn5MPmEtgaZ0bFlbc0LRuA6zR\n\t\t\t\t\t\t\t\tIdU/uOIHlzXc4MTKzQiu+KX4BRn4HHgFzPnEQDmOTwFkKx9YDx+8TuDTA7mCD5TfwK0WPiGQOXyg\n\t\t\t\t\t\t\t\tWRjoSnWQWXydksiJ3MjI6C+crQ+dS7E3Bg9ig6c/Ics6IelbFDIZpWxqDGwdgJI+sxCXfIpaZS5j\n\t\t\t\t\t\t\t\t8L/Ne+rrj+22T9VijeMUzu5Rm/fHkXn/PNXjV3k4QCXVv0gWZ2DaVgb2Khc66NoK22kZ6VgZuHB6\n\t\t\t\t\t\t\t\tC/toOel4G0QzxrJGiWUx5rBmidWwFigIKrEKKYpqOMixsO/7fwBeYLFDJ0XYobN4bKHs7NwOzLx6\n\t\t\t\t\t\t\t\tjqLs/GyMbIoqQuDGIqwgE0Iq7IQQjUUjcLQJwRqLQrBiTgi8UgycKqUY2CTAZZwDEWWcFGb5ZiRv\n\t\t\t\t\t\t\t\tZG/EpA2Lc21YTtKGl2/a4KygDY5nbWkJWLEmAUsdErDyTQI85SYBKt9UQQ6QAFdJEuDEIgHeTiAB\n\t\t\t\t\t\t\t\tNgTEBpKthvDaHqlge4KjRQibOgPy4GWcqgCDIurgP3qZZ45e5v379+9L5MogLr0TKQkAAAAA//+q\n\t\t\t\t\t\t\t\tU1aWC51dASwC3Rx3xSQ2ewKbDd6NDrM3tcwMWlr/78m/b5LiB4RM9TTV81zSXJwZFRnZJ1z0cfdX\n\t\t\t\t\t\t\t\t1zD4c40pUUn2wrE9h+yBeXAnMC/FA+s3McYqB2FmUTHRUlFmAV4OJ2EWPkZGXg7y67If4JYDE6Tl\n\t\t\t\t\t\t\t\tB+4ZgDqi0PHsPw6C4MhmQYpsUJ8AyvgHbQ8qwfoIW8CRD2rVy4LbI+DMxgAZOZooIS+RIMEkgJ7l\n\t\t\t\t\t\t\t\tQYUArEWIkvc5kPK+FC+sRcgL31TCC1bMC2sR8sIKeF5wXxvkEl6wEbygWXjwYBZotAk8ttUhjlHC\n\t\t\t\t\t\t\t\tok3QwYfFtUFDT/aQvoGisiBiqTKsgSgmyhK/R0hCMs7bd4Xvnj0Re5K37mOq8W1X09L0sf6zD9gU\n\t\t\t\t\t\t\t\tPOsZdOssMOevBxamzay3QavfGCc4ioPHERADowg2G3gCGhJlrDA2sHvOAs0WLECGoy08dmHaGFGM\n\t\t\t\t\t\t\t\t+AJnsyKx2VEmCpHnXr/AUwwjEpsNic0KY4OcAptRATL2QXUdgC5ZFYlidGECpgxzJmY2VlaOek5G\n\t\t\t\t\t\t\t\tzkngtKQDTiYJLOB4YwFHMgu4gGcBRzKLFCN4RT5jQj14wOQebBIWGt/QuRBYfLPC4psVkiLB81L/\n\t\t\t\t\t\t\t\tIaOJHRzwqIx9AongJ9rgYQJ7YLzCZyRR1+ubGjOD9ps1X7nCs2cPq8ThX6osscCAOfQvkkkUHGuS\n\t\t\t\t\t\t\t\tjIJbuVhlWJkYd8M9K4/wrJidJCs3N78DO6+/OKN4PRcjF2MCAAAA//98WztPAkEQZu7BkUMUA+5l\n\t\t\t\t\t\t\t\t8Qg+wBzqRkJiD4bCwkI7Q0LUf4CVlbHQwpofYGdib6INpQU/hMbOWFFYeDN7e7enaHOZYi+Xm5lv\n\t\t\t\t\t\t\t\t5tt5MMJlsnWSWIhpGGURLpkqBjH1S0zhklVIhbIid+56Qw4qZS72OZUcOZF0TncA1BenoiunvQiS\n\t\t\t\t\t\t\t\tjIgHyaEtjpPpJfwId/AL3EZo8NFqCgWDdnsaI2S6R8sP1BiVihyQ2n43SDf3142VUJGTp+B21/XP\n\t\t\t\t\t\t\t\txOEpY4V3eES9um+T4sJz3g+C4PLEvHug/YfwcRXGNxPckGMYGgIgQYCpEJBBBBTiSYEEAV+qlhV3\n\t\t\t\t\t\t\t\t+DOh0P3HyePWPx5VNM0AyKETjqKYJ69ZFE2i7l3lBnDlRPooxD4KdB6Uj0LMSMDClwFvTSTcW4mH\n\t\t\t\t\t\t\t\tknrJO394Ju0/Xo3H2bLMAI4X8oYds9u9DoGcuFVWk+1Ux3/+JICeEkCTnVQAmWkBZJaaLki6aOlS\n\t\t\t\t\t\t\t\t1LxA5GhuntVkW5MtTTZTqetDs5dimkd9s242S/VSs7fW23rddl4a0KhV/Zx3EGxYVRuKfq4joCZa\n\t\t\t\t\t\t\t\toiOOxVDYfxtRIHfy0HCCLglAHUYghgOYB8mmyISWya4tOuRHpv2kdAdYKS+TUYm+w0WxkfeXZE77\n\t\t\t\t\t\t\t\tBgAA///aEsUPq+74odlVJoof7B5+sHv4we7hB7uHX0oApbhAXhwjgDR0IwBKVCCHCoAdKrDj/yXI\n\t\t\t\t\t\t\t\t2J2AGshIAXBDTABUtYPcJwCr44GM3+B6EMj4D5nOEZBHrEOCuVMK7k4psDulwO6UArtTCuxOKSkZ\n\t\t\t\t\t\t\t\tWMqXga+/kQErloEVyjKwLCADb4TLcIGMkIGMKUIYDnwgV8gkygs4CDQIMAvox37BrJYFkLPEX3jL\n\t\t\t\t\t\t\t\tzRK5aQeprWNB80TA2trmr5GgEHRDnjY2gFyRi4mJCqLV66KQlh2kdmcX38MrKh4W6D/Pn5kFwvSd\n\t\t\t\t\t\t\t\tDaro1ycXzVcv2pO9Yz1TjUebhraOv624rdxfU6Yar1YNbW1Q5c8SW+MZlBCaEHr/BKwNB8zBYowF\n\t\t\t\t\t\t\t\t6G04Vlq24cSR2nCQVVKwBts/2JzrA1ACQmuwgaYFBcG5hbimG7jRBmnA4W66gXMUSpsNUj7CG3NU\n\t\t\t\t\t\t\t\taLoR0XITJaLlBo48YMMNPB7xkKUQGHPcDOKMCQ5S1nwmAiYi1mLefC4CLiLeYhz89pwsovbMXDwo\n\t\t\t\t\t\t\t\tw608/z8AAAAA//+CRyEPUhTygCMMPIYJiUIe0KpscNDzSEs6QOPmD2zU9QEks0M3pu/4fwvWyn4H\n\t\t\t\t\t\t\t\tG/T7Bht+/QVdyTpBkl9SXtJeMl+SRQhWEQrB1ikIQeNMMkqIBdzlA8ecEDi2hKTZYHHMBuuFsUFH\n\t\t\t\t\t\t\t\tL6Si2MA75KE7JsFdNjbw6AUbqCsgCXIVaCs8kASvdgDJAclWCWzN6liM9SeI5a9Iqxzge4JAPavC\n\t\t\t\t\t\t\t\tfy9ev/33klH87WtGiUOrps9cuWrGtNVMev/e/zvCaMMoCIS2/w7/e3/z8uWbl25eB42a/0thmQCM\n\t\t\t\t\t\t\t\tN9CoYKaDqhGTpaiRgjOTp6iTQphQulAdR40MF2zEnFXOgY2Tm0cEpQgWwTl6Dok5EWDgg/McdMQc\n\t\t\t\t\t\t\t\tGmUXYJnvA3RxohD6ennMuPuGOXQOXw6KOoaOPnTOQ+zQ+TdYaoOPoUOLZqLG0LEOouMfRYdnNfRR\n\t\t\t\t\t\t\t\tdD93p80p4b2ee/Z478469fBQV3/gEu+AYs+5G5hsOh76eQWqafzTYf1Zah/67/y/N6dOuFn+bVeR\n\t\t\t\t\t\t\t\tusIAKUWZi4AtcyGG2w4iDLwCvAq8zDyc/MCy1ZmLn5WTA3mfwgcHQXB4M4g4iBSIMPGww4KUHRak\n\t\t\t\t\t\t\t\t7PAgZQeHEjs4SNnB4cEODlJ2KU5YkHLC23nQ8IcFKWiVCcQqThVQeHJyQcfIAQAAAP//guxVATJ+\n\t\t\t\t\t\t\t\tQgbLO4Sxll6CoEEHBnDFBVq4C25XY1RHzEVcWv5m4Yu89+wpWB1pqKPDPIGL09f2z3OW2KVR3qzs\n\t\t\t\t\t\t\t\toEV//58yX2epYDBmnOkQzsbEKS3KJCmtxqmlYsRpo+LE6aMSxxorFqwYph9ilM+aI5agkKKfaiRS\n\t\t\t\t\t\t\t\txVovWKJQqVGi3cXYwdsq1a4xhXGWNDcDn4QmixxzgxKjkgMoXSspqdnJsYCHm8A9DXZ2bjtmTkU+\n\t\t\t\t\t\t\t\tcLEDCg5NcNhpgkNNExbSmrCqQhO6mVkmSlPaFFzISYCHQSXAC+QkwOW9BDBAt4LHb/hgZSMfbHaJ\n\t\t\t\t\t\t\t\tD2U0iw+peuSDZdLtUXzSDIoS7ODqD5oV4fXgF+h6IxFoVoTnwB+wHPjDQR2cA/ugk5nxpvWmrOzg\n\t\t\t\t\t\t\t\tMo8dPAPJLgVOEG0m4FlFxNwidEGENnT3M6xEg4/TAgnwLkjopi7k3pKpiTp83QNsRAk+MyIOWfsg\n\t\t\t\t\t\t\t\tLsZ8/e/tmvNuXJG3Ump61NRyNBpNJ1dbWlmszU4568LlcS45vU9bK86kUbvZ3Z3RaeYRa+XLzv4B\n\t\t\t\t\t\t\t\tYU5KShKcEnzq0/Ncqwz0zQ2VT5p6+vu5KiuL8UhwyXl6AVOM3f9XTH9Z5zFIM1x0UOFhlWLVZmXm\n\t\t\t\t\t\t\t\tFmC34+XmYpWWFrdn5vSXrZdl4mPokeXgFYBFqgAs+whAs49ylAA4RwiAk4AAuLMjAE4IAlJcHOyg\n\t\t\t\t\t\t\t\t8Vp2UMdUELx0ETxmC81vsCzEDs9C7OApEnawGaCNE5CakV0cvIKxQwZ1yBaeh/QFvhlB+6bGxpDt\n\t\t\t\t\t\t\t\t5pAZJ1Bn1Bi0rlpUURAxTs7017TWcPWm+vo9jC3/ajgkxHz99VLEuLj4hHacZgqax+j4b/+8f8wR\n\t\t\t\t\t\t\t\tydoaqtKcwHDaCGwBhANLHTHGJAcRbjZJ9ip2ZiZWUU5WQSdWLkYO6GQScg8LnCIBAAAA///CaMhh\n\t\t\t\t\t\t\t\tNt6+YWm8vXOQhQy1YrTZmKD1xytYI+CbgwzSUBsfZMQV0l7DPcqOb6SNA7aYmgPetofOIsGiigNW\n\t\t\t\t\t\t\t\tj3GAYgdcgXCAjeCANdeAjK/gAo+jXRx9dhBtbgkegeAqxAbaWjOFRp0xIsoEjVnC98Svy9xwZI+A\n\t\t\t\t\t\t\t\tlHRYkOda7z013gHXLzBd/dsSWqmto+FjzewEqiFsQbtcgHHFxnBzD7DT+Reym2NLFAszbNELG6wq\n\t\t\t\t\t\t\t\tBwpy8MAF/8FGD1iYIGWVRZQaiyabGYslmxuLJxubJqslqwNrIGsCKyubFNAiFilmJmYNBnVmCwZz\n\t\t\t\t\t\t\t\tZi8Gd+ZSxiomDgZWJtChMA48oJ2FzKxMHEyMoA01BxxUOAXMeRhkGLIYqhhYGHo5+DkYmZmFmVOZ\n\t\t\t\t\t\t\t\tS5lZmGXA61Gb2IGFSiyweo0FFSrAINGGL6EGLWphiIUdMgFd0cJS/89m7z/7M4xRjMDU+XsxS+yf\n\t\t\t\t\t\t\t\tduZKoNPCGBiA7o4F+tF8D2IREHjhD/c+jNVAfDxYVgOx8vLuhp5I8wm2SPYTYtEmeC/mF4d2cPOc\n\t\t\t\t\t\t\t\tWZZZh1GLSZNZlUWNVYVDm9uE0ZrVhdGbNZwxgiWSNZw7lymJJYUjizOFK5u7krGWqYilhKOas5ir\n\t\t\t\t\t\t\t\tiluOBxSU7FJsrGwMnAKcTJywpUBcbKHwVUDAUASd3aHPxswgBS7Y1cDJvY9PgM+eL5+PmYEN1LcA\n\t\t\t\t\t\t\t\tt05hK9jYQPUSL7g5CjnQoxm65tkIXHBD1wyhLhkCVsLasB4jbNmQMDCchdnM/t1d9+/hv8dr/906\n\t\t\t\t\t\t\t\tcpZRfDaj3CFQeDPH/gGF+XzmRBAG+sMGmPYagOHOzSjkyM3ACAAAAP//XFxdSBRRFD733nPv7Ow4\n\t\t\t\t\t\t\t\t7ZqpuZuamS21FSX7ULil1Bb4R/Zj1pDlS1ESab9UVFQPhZgQFFE+BBkUCVFBEEshJRIbWIhG9PfY\n\t\t\t\t\t\t\t\tS5C91UPm2Lmz6xYxc7iXw8ww95vvmz/O/aamsto3p/u60Cotw2OOaYXZLDHLCJsRETHiUMViIoYx\n\t\t\t\t\t\t\t\tFTOqzFX+BqhnCZHAhEoY9Waj32HNwpHNhmM2Wx2sTeyTbUaHuccqD3DwVfNlvg28xnead5IaQ37L\n\t\t\t\t\t\t\t\t72HKQnTpRQglMi5J6QqVJmexJid6k1+VREozxW1GMFuIfo+t84itikbUYwdspp13auxdNiqODL1H\n\t\t\t\t\t\t\t\tIp7Xxf+tlbqKuTVamVuYcUaJRtNV4dqHYXrN8LbMQzRdiYVnx+ld/cUn9thtGmdVLP7ZrWX33c18\n\t\t\t\t\t\t\t\tCV/mOuzO5EetZHp/10o2YPQZGKTPDIsln2axTuakCSt5jj2Q/ZGVgTpTXF+zxkEVUwnVpNpUp1Km\n\t\t\t\t\t\t\t\tMGSRKJTrWa3YBi3shDC5oXkoQyiwFtYjB8GRDsn3Msa4EJgFRUu4zhOxhB4zYDKBebgOd+NRAvm8\n\t\t\t\t\t\t\t\tL/gljYgHiOcU84+An/8tS9MEy0trePLIqxF37TBrYQ62/jLYKEZ+D4k4eNWJcuO3CIrGXYH4Dwin\n\t\t\t\t\t\t\t\tnTj7zyQWZh05B93tRo8qoa5JXzzgOcSBz3I3/WPgyf4z9FzhoxQfoXvEJRjlX+EKxaQsgC5ZwAqo\n\t\t\t\t\t\t\t\tvUVxl6KR4mk6D70UJykOij7m0Hk8lMchJE9BSl6Dw2oRpPAGpFSM+gJSYid0iduwWHbDazVA+QY4\n\t\t\t\t\t\t\t\tjGO07WWK43ABvwMYX2EHvoG9+BuSGIV91O7HIWin80rovgxCklfCA/5iapDap0YKkjqHn6Bd7yPa\n\t\t\t\t\t\t\t\tvf0OiAispvwjfAaraDxbqY3rZwCU0rIFzkAvi7EnvENUo4lJeUgOqmHjlNHnu2jm+v3+G1bc6s/p\n\t\t\t\t\t\t\t\ttMN2t/1zxvXAuWBdrpX7dubLvKV5Y/lF+RMF9wovz26Z7YaKQhPhd3O6ikMlE6Xv5z4uuzlvcfm6\n\t\t\t\t\t\t\t\t8g/zH1QsrxhfcDWS7+G8Epr0lH/Q/w2CfwAAAP//LFzNbxtFFN83ealwsLtOvLGJTTK2SFTqJDg4\n\t\t\t\t\t\t\t\t9qamTnbtlNbuHlIcd4WEUNSoR1BND4hbLFSXcGiSXsqlkP4HNeOwiVOnDgktcGpVSIFTaqACiY8G\n\t\t\t\t\t\t\t\tI4HEZXmufPjt783T+1xpZnYOs1JEepPOK1fxd9LBLSkPhhSG03qf+Xe0aTZhz/wrtGce7Nl8rvmk\n\t\t\t\t\t\t\t\tyXgTNuBFQeoNOFIhklO9cELiBCbNwDQlmIG0NEdgkIIRSsZhSIrBoGTCYMsv1Q06aNIw6TWYko4R\n\t\t\t\t\t\t\t\tT0FSChNPEhvESaFl+AZw8WeLBsQfLeoX0KCkzwu0aRQQnTZPBWjtCEMf7SVuOE4n6OOUNEtJhyjI\n\t\t\t\t\t\t\t\tK8QvEyeIx4iPtYuZgBHdO8r/pTD/UIzfHtv8h4c2/546TPWACmOSj6ziba9Y22u8zVHy9ozyx+Gf\n\t\t\t\t\t\t\t\tze+omYfM5nsdNn+WujpJvTtgjAxbASLtAC+1HUdhRCT4cuowjVcJNwkdkkzPOuEeYZ8ssGdhA4b1\n\t\t\t\t\t\t\t\tI/Br+BfzJ2r4x1DDlBuRxkJjtVFv7DcOeb6FB+Y3ks0fAL0HmvAD4mhUdYug0MUZURBFcUOUxX3x\n\t\t\t\t\t\t\t\tSHRtiwPx9AZt4TPfcyo/AbLJTTZzdu4su5CH1fzNPHtt1oe5WS/O5nrxdDaHJ7MTeCobxQwhG09g\n\t\t\t\t\t\t\t\tUovipDaJU1oIp7V+TGs5TBF0ghaPYnT8PI7HYxiP5TEWH8D7sUexg1jrzl1lbSij0pZXWXO/oLa+\n\t\t\t\t\t\t\t\tF11rDlld82fw3crlCpV1UKk8tfhPtyuOQbWiZPDDRQ8W3iq8x+Tr+58w/WNvn6pf9wZU/SMfSdd8\n\t\t\t\t\t\t\t\tAfVyycPlS3JJXpKX5RV+iS/x5chSsVRcXL66Ulr5YGVR1t93uFX5Ir/I9HccTlV+G4JfQfBL0O4+\n\t\t\t\t\t\t\t\tucuCd/Q7TJoHad49z/RzN84x+Q0YVbpxRBnCYSWBYcWDR5Ve5MoAhoLTGFSS+LX/VfQHTmHAn0S/\n\t\t\t\t\t\t\t\t0vobTAI9VG6P4sduQkEBXUlNq/LhMJcOgWvX4M4dg3dtG9xB6KwZHLcM3lE1ONs0OFgGl9YNvrsT\n\t\t\t\t\t\t\t\t5tv1MN/SzVqIb1ZDfN0K8Z3dL1z17c9dta3bzurmLae1vuF014o1pleLVSZbmjVjLVgoWxESL5BY\n\t\t\t\t\t\t\t\tt+5ZtvVMl2MCnS7WiayDMVo6z3TSRLWh3GNIRj5d9tC0NmbTn3qjw0b5fC5dunKlv3zNyL3+PwAA\n\t\t\t\t\t\t\t\tAP//2tAgG7mDA6gmYgPjBsa+yA0c3sFQJgO4EiguKS7GNkK9gdl1A5trRuIGNmWXYhCHD8ThU3YB\n\t\t\t\t\t\t\t\tMjbwg9j8yi7ajBtEXDM2iABZGIYUw4B2MVQSYhGYYCjFZifILSVAEsSOA6krjoNwGOOKGbCoL8Gw\n\t\t\t\t\t\t\t\tURuqW1tCGwAAAP//AwCzczb9DWVuZHN0cmVhbQ1lbmRvYmoNMjYgMCBvYmoNPDwvRGVjb2RlUGFy\n\t\t\t\t\t\t\t\tbXNbIG51bGxdL0ZpbHRlclsvRmxhdGVEZWNvZGVdL0xlbmd0aCAzMD4+c3RyZWFtCnjaYmBgYGhg\n\t\t\t\t\t\t\t\tZFCIyTzDUH9+nwMAAAD//wMAF+cEfw1lbmRzdHJlYW0NZW5kb2JqDTI1IDAgb2JqDTw8L0RlY29k\n\t\t\t\t\t\t\t\tZVBhcm1zWyBudWxsXS9GaWx0ZXJbL0ZsYXRlRGVjb2RlXS9MZW5ndGggOTA+PnN0cmVhbQp42qSN\n\t\t\t\t\t\t\t\tRwqAUBBDn7333tv97+hncCOoGwMTXpLFwE9pn6v+2Bq3ZKqzsHGu7OIp94UDQiKhmOTlR0pGTkFJ\n\t\t\t\t\t\t\t\tRU1DK21Hz8DIpHhmYWVjl+U4AQAA//8DAFriAncNZW5kc3RyZWFtDWVuZG9iag0yNCAwIG9iag08\n\t\t\t\t\t\t\t\tPC9EZWNvZGVQYXJtc1sgbnVsbF0vRmlsdGVyWy9GbGF0ZURlY29kZV0vTGVuZ3RoIDc0NDYvTGVu\n\t\t\t\t\t\t\t\tZ3RoMSAxMDEwOT4+c3RyZWFtCnjarJJNSFRRFMf/5775clJLHXVs1Bl1zPzsy6yEYshFFloLtWak\n\t\t\t\t\t\t\t\tkmFmHAMnB9FxWhSCoFhBLVpFkS0scBFKqyRs26LNYIssBI0SrSyhsY16X6enQgs3fZzLPe/+Lv9z\n\t\t\t\t\t\t\t\tH5zz7+rsDiABvVDg8kW6HLaBm0cB3AMUS2s4GJp6773K51HA8CPYfqW15Vv1WcD8CMjwtwW8fvdi\n\t\t\t\t\t\t\t\tJA3IM3NNVRtf9MhEE7OL2dkW6ooKy5kRZj/z7fYOn7fp/McLzHHmUyFvNHzZKBQg/xizI9wZCDc8\n\t\t\t\t\t\t\t\tqJtmvgjo7QYL+F19DPbN/HvofCj49VVntTy9eZZ+dRn/KUwb+0+CYqL4X/9Lt6ifeqmReihE3XSJ\n\t\t\t\t\t\t\t\tXOQjD+c+pg480UTDWCAHZVEyERVQChmxQoWUQ2mkg5n5C2vimvK+luNUje9C6xZu8H6B1/iARUhK\n\t\t\t\t\t\t\t\txgSvIK8RPIQbbsqlIjpCtfjKr2ez9i7G8Iw1L7nmHeawRCZqpghdpzsiSZwQzayzUg0NinqxonPC\n\t\t\t\t\t\t\t\tSD0ilYLKOMXJQOnkxDhe4S37yEpDmFHKxVNEUYdJqiSXMqyUKHYRE8Nbd0PzgV9zwGN9TL+0hQ+G\n\t\t\t\t\t\t\t\ttvKB9Kz7ZjWgzstPcoSVdtkvz/29F9ZDXeCXMjEkW6RHrskoBjCw2qe+kc/XylauqRWqjSdYQNk8\n\t\t\t\t\t\t\t\tAx1WeQazmOTeQZtWCpkgsYAJbVIJUDHFnY2wfp2W8XlDv4QZzHFNIlOUBrm/JnXeddzT1Nhwur7u\n\t\t\t\t\t\t\t\tZO3hQ1UHKw/s37d3T0V5WWlJ8e6iXYXOgvw8hz03J9u2M8uamZFuSUtN2bE9OSlxmznBZDTodYog\n\t\t\t\t\t\t\t\tlNGotcY9lmUsteX9BAAA//+EUs9r2zAUlpOuG8kGblJGNm9DRuSUhF5ND1uoLZUSNtKQgT12kFMH\n\t\t\t\t\t\t\t\tHJ963qm3gpI/Yn/C8y3slD9m7LTBGPScPclOmobBwJa+7/3S06fnulGv5C8fcqi27T8ukMauMXf2\n\t\t\t\t\t\t\t\tkl7t8dd7/M2WfwByDIL5gS6cE/EDSBOsYyD6FKv5Hk8qk3iSMT6DF34iJWYEzKYgfp+UrZjaeb3m\n\t\t\t\t\t\t\t\tM39a63VJXqsjrCPC2OvcEm8tAyqCn+YV8uRZrwuNDlTaXP8Z9OcSAQuwEnqa957lerXYdRFM26Bm\n\t\t\t\t\t\t\t\tgSw49OGxOZfOoB8DmdO8u1KLpU0msvM0YUn8GZWLscecVNs8HWsduf5lSuEAi5vFQQvlKVVMy8FT\n\t\t\t\t\t\t\t\tiSsLMOufdjQ/98Nbd+VAA3cORx04x4jzL9+dquKtGdVUqVsKXy/DXa+r1yiKWtiw4gwLYjGeneFV\n\t\t\t\t\t\t\t\tWie9bnGnUoBEZvrMLNZ98oyq+dT0ujA9mFCe4sPE/4tSiieMJ3FyVlT3oT82Gxl/Cs0FUbogKk1l\n\t\t\t\t\t\t\t\tAHoOjEcGkVuIPRiFvm6MxYFTPPvWIksLGvjGSXUHF1gA6BUFMgoZhnp6mXpEXXlmeNzIwqzhfRY8\n\t\t\t\t\t\t\t\tatuMqjsClmS/fj60xKXlsG3fEQ0FE1IpwahQUsXL9c2EUZupfDBQ11ziqcMQs5brb3MHxCICW6bW\n\t\t\t\t\t\t\t\tKWqvJ0CMwneOexRt6HBDCY4UDlbdXAdVwO+i3FBlMg5dikJ9DCMHdQo1HiMudj1IOLgevnEpm9Zo\n\t\t\t\t\t\t\t\t6m3l8Uvouno658s+mSCBm8vQ8L8AAAD//3xWTWgTQRR+b3Zn9odoNv2zuKgbokVYdFsEa6XQobWg\n\t\t\t\t\t\t\t\t5GB/UrppKcRWIRdBLx78I/bSNFfP3j3JbiuYioeCQvEQ6LWCeBJPvYuV6pvdJurFTfbtvO+92Tez\n\t\t\t\t\t\t\t\t8+bN1/Rg2d0AGfi0HhVl2W5beueUpda2dLpXChTlNSBVwt7IHOj8s05f92T1aoR9/zHfSe1R90So\n\t\t\t\t\t\t\t\tuayctpirqZbt004fjU741D7vN2gRdguR40c83HZHy56TowqgVm+2UJxeCL3JRicLUuRopioPKNUL\n\t\t\t\t\t\t\t\tt6qNo62kkv5fnwjyxVJHYRO0Ta/77eqS6jfahYvUqfDv7h2/LihisURZTnVmPC5gfTqWWJ9dCLcc\n\t\t\t\t\t\t\t\tojP1UrjBkE1UxsvxWbKFWx6ATFCmUAUqxVOKetMMKWbi724RgaolVj0BEn2liZBgZhtDWGmyFHPS\n\t\t\t\t\t\t\t\tQANJIAmMLHpqkW1vnTAzxWoJllwxqOlKm0tTWjJDx7kbo4I2CHlLy2ghbGbwGLox9ZpJ4CbWYku6\n\t\t\t\t\t\t\t\tqUeNPGQ6wvrcn9BzC+FmBqhbIinQuLqo+vRX6VOGBW/Sux3JqfBxudqolFWNW1UfPkIlF8N8wYm8\n\t\t\t\t\t\t\t\tkx/dhvO1fAGYSicDBFFRevS8EUwHdQetz61EDA3mc/ncORJIXj9qHA7UE6hBBy88Onyn7xCP0OCy\n\t\t\t\t\t\t\t\tzGqA+J5pPYxpDIA16VQ9bjnD0K8EAciCpUuB78NYMDS4xi/6a08+IOZR3/n57bCl9Yme7y+NkOZJ\n\t\t\t\t\t\t\t\tLIPNExdQYzols7jHuNjjhoDdm8TJgqX9kREI9sf2hwZRjY5+bP6wgQ/UzT7h+sELXKdXQD9xnNPE\n\t\t\t\t\t\t\t\tVAziOa/kjGCWZZsMnxFg2Zq+yrkYFleMorhmLIqScVcsG0/FfcMGygTt+T0bbbAt1Ol8fyhQaByZ\n\t\t\t\t\t\t\t\tpgvDtGyL28A5g+avL7LLdoZ5ngRkMwiZMxnkwVLuNwAAAP//NFdNaBtHFJ6f3dFKsuyV1tIqjhUp\n\t\t\t\t\t\t\t\tWiHXltWVdy3JqaxocXGKDsY1iduq7SaWi6MkrRuVNIUmFdKhTQn0UNnQhNBLLj00l/zUkVtCcHoI\n\t\t\t\t\t\t\t\thECoKIEeW3wILbgELEzB2lVnFWeHfQOzy3zvvfm+NzOqTgPVPSJ1NGd1XactPthnwAxbARWW0QtQ\n\t\t\t\t\t\t\t\t/5o3NjY2upbboJ9/ytln7AjotOZg2uBBJyIHzHMl44+SWUFR+Eus0YBx83e22V5GPuMfaw1KnU32\n\t\t\t\t\t\t\t\tY/ZfoIJLP4NY58s7Lj7tXX/Ru9c7v2rz9p60fJgaLuAPSDjKDHOyXQ5IUgEVmLcdhcG3IufxBXuf\n\t\t\t\t\t\t\t\tLOSEs0JVYARhoN7DhOKJ+EK8HGfi8WgdCEJ8PQmSs8kTSRyqkMY439rS+R0F5LZUWe+asYQei8FY\n\t\t\t\t\t\t\t\tjA1HhqIoOe5JpyKq4hN9PtEtRaND0agUJjZCvP3WmKqk0qlUWnUTawyf+MF8trR09sxSEQZ/PH5F\n\t\t\t\t\t\t\t\te315eHRwPpWu5edWDmfys5PZ7/JHLr82dmz/KxMnJ/K1wGKxCMP3b8FQ6YOPvG5B7jev+KdCoVE1\n\t\t\t\t\t\t\t\tc+jepW/updLySCQw5Te/3zfKe32UDfSkSLKUDb0gACa1kYJnfv8SOuP6DH3uIr4VDosrtr6KA1yg\n\t\t\t\t\t\t\t\tv64Hg0Et+GYQi1Xb2gF+h0ba0rf2OKfDfmQjjERppzCiz8OOd0OT3C8iItn79WWzfdvYRoN3Iffu\n\t\t\t\t\t\t\t\ttVvmuQ8/zVz8oli8XMueXkTPfjMb70yNs83sxHHzwdPVZibgbb+/7+DkI2s1qZfMNvXSCd7QBuz1\n\t\t\t\t\t\t\t\tBNHIAimTGrlJ6APZOsKOOuTo3qT18d40x9Dzs4vYq3Cth98xFLcqq1RjXVc9FuuogPc0YjVme/cx\n\t\t\t\t\t\t\t\tkzTy6CvjImqwTfNPs0Pfb7tapkVgs4t8SAvbmVWCHXgVcs7rjipm0XWAIcaunqAr4dJcZReju635\n\t\t\t\t\t\t\t\tWwpvtBQgG0rOULpYqluiSDQbeLN9tdXCp1otyOEHkDP/a+csnJHO3/ghxfEDRRssIOhdFbHD0btC\n\t\t\t\t\t\t\t\tBFF0eKs1a4sbqFLxWTKiEVAYQCeX93JvsUUKR4fc6ksOJa3I8MMj0/knV0t3pyOJU3OnP/GLxLyB\n\t\t\t\t\t\t\t\tnsK1xRuZ3HRfL3zVE5xQxs6/h+agZy/Pz6kXLJC0fqrrOkVdAGVac4CNodkkdNUteCuTL3PIPN99\n\t\t\t\t\t\t\t\tAmvoNtvcnbXqS6nzFzlJ701OelM6qoWG2GHbsLMMy2zV9j8AAAD//3SX70sTcRzHv9997zwvG7vz\n\t\t\t\t\t\t\t\tdN50sC2d7ppj7tzmdNbOsEwNfBCoU0QoWYpQYlmJjLP5I0goO3qgFYT4QHqWQagZ9CD6A3rig3oQ\n\t\t\t\t\t\t\t\thQ96kFQQFZhf+363CSXGYOPg+O6+n9fr/f5yeh5XaPAaL/N54AzPuAykIVqIEr1GkiUJVt0xNywh\n\t\t\t\t\t\t\t\tSSpL+/VjC8S8oFgWtrI/dLMCcDmBmP6GZJ/BAzKUk8D9eA7P4344By/ABLyPUSR8XK2eOt18I6zG\n\t\t\t\t\t\t\t\tjqnqdEvLtOkTfoh74CLsIzct4N4dZ+NacvpFXX04WB95nZpaj0YjtSCTEnaGzEUgb4VNmu2skLCM\n\t\t\t\t\t\t\t\tMMhmcBwvG4cQLybrQAuNCBFQJJ0CgMvh0lwmG6fzz5zC9x2VUvPStKQN/Asa9cKV7oN9kWFnTjXE\n\t\t\t\t\t\t\t\t3y1+weOm67dftXb14suNvvrh3hMXz+letwtt971s6OzCJeybQCC6eivWnS+z+IRc5oynKeCONIUi\n\t\t\t\t\t\t\t\tEASjmlfxKQF39RXvmG8sMBLkHI6Se22lsNQuK7zh1/xpIH6m0FA0hQJx0mtFksfbFKg4jypBJ1OJ\n\t\t\t\t\t\t\t\tkupqOBaGlmTlSihLh3Y4kXEfpPzaWM+W6qd7/A8fKWMprTlqLanBsixRUTAxAweg6mb6RpUha3lk\n\t\t\t\t\t\t\t\t4ua15WhdHYuf4pk9uF/hpQPA4ffn2+15+Je5IBoOzXZKcB52ZDgTMX5infiuEK6t6bOwUiuGzN0c\n\t\t\t\t\t\t\t\thEA31NlunYEMw+cKRFadR5lUb+5sEnw00HsHLNuK/Xgc+9kjzPJ2G0Nql6z5ePcDu0HWFEFEc4sc\n\t\t\t\t\t\t\t\tOmyE0Ek0ghCSBH1cnBVNoihpEszVAXeHe8QhjkwwE2pA5harJutnRkH+ooDOiUSZ3cBP8Br5LMNU\n\t\t\t\t\t\t\t\typidgilTCf6M38JyKKGV370P5owFtEC4t+9+ZFaYCWABVSChNVlkttImN7PN9jgbtw+yA5ZB+1X3\n\t\t\t\t\t\t\t\tsDLkM8NvDofXWqGZLTUVFaVLXsG8ZLVWOWDVpP+56lehxePwmDwebtK2HiCoyfP10C5VqcK0ebzi\n\t\t\t\t\t\t\t\tnsihnH/gFuVk2ygUJB6X1RADKP5SMfwHAAD//0yWXUxTdxjGz3t6Tj2t5XzUc04ppV/0AK1t0pYj\n\t\t\t\t\t\t\t\tVaJpD1pUpGQLlW1CcMxNo+hQELPsI2PSxiyLw2Wb0OCIC4nBmLhky5LJcDdeLIsZlzNmZKiJ2YVm\n\t\t\t\t\t\t\t\tLIuJN4M/e087Irf/q/f5P8/7vD9NDzAKtlJX+41YqsVR7TKyqdNbva80NA9nv74/ePQtCF8tfXno\n\t\t\t\t\t\t\t\tbizYAnAedJDIFah/YlV4qbU5FJPlLbFP1LSz2vXz1Ptf4QG2Wfv2ZSQQhMhPd1cZVH9j7QmbRvIS\n\t\t\t\t\t\t\t\t8ZrtMLQ2aPO+KhwTRtlRt1We4EUb5SlZVE4qULf9VtfmIjfnK2vCs12Wlfm/YMxQbjItTqX0JidU\n\t\t\t\t\t\t\t\tBEhldWyaLC4eHjcEMgvH8zeHfvuTfHqsoJ9KNu5NXrpIt2Kyvgs37LDKq7/v7iIL5OnEjN+7+itv\n\t\t\t\t\t\t\t\tv47ZeA3dGWLGqEbqYyOUsGRsO91Jj2FpY3JczpZzZz0d/l7/Sf8HAb4h4BC3y7fW7pnAwt9ae2go\n\t\t\t\t\t\t\t\t+CAaSI0JEUTRNekQMxpoZuP48VHTvJOUKlKaqI1qFi0eAS3SH4GagnU+bEKJhOzVp5e5JFoBk2gy\n\t\t\t\t\t\t\t\tEUUaY8v7V7YqZXLJCyhR5I04Qj/74lnPoSMnDvcuf3T2zkFd2RmNHGn97MrVz7Nva3XbVL17zre3\n\t\t\t\t\t\t\t\tvX3p8vTjjn27m8JkwZlwqd4fpmeu+xU5ppCFcBwd6ll7xCyjQ1uoAJU2wgfsB2qGREtgK6q0BDCK\n\t\t\t\t\t\t\t\tTqp6khfBN8GqkkwXqR/rPAVuPogSKuHL/GX6ZI7eFww2mzGjpRezB0HaMDqzTEp9MwMLz/P7s3fe\n\t\t\t\t\t\t\t\tOHo+C3gUGg6GxseHP0wOnsvth13guPTHSx35aBCW/q2jG0X+2+lrl+txTtOpFeYCpVC11KCR1+io\n\t\t\t\t\t\t\t\tXad32ffQnWynfQ+fE3vYXnu354T1pK1f7neN0O/aRvgRWYZ/amsd7lmnSHEil+fe5M5yLMcxJYdq\n\t\t\t\t\t\t\t\ts6lF6rYv7oNaKArzXlMPEhRasU6L6/sU3NCO65dOqq+UKLOy8gs39/3wvXT4vfsF8g0pQTdEwAky\n\t\t\t\t\t\t\t\tmbIMnDl+gYO/ixe74uRBMgYJcIMKbeQpWekeGj71DiYwijwzZvUhZxiGhte+pMBmjp+VhCq7HQlD\n\t\t\t\t\t\t\t\tqPHX0JzASY6i8HrV6Sq6ClODkB4vYwcyB/5+S4u5/thSocpfK0HFXJVQs44pMm2wjHmqO2MDHaCS\n\t\t\t\t\t\t\t\t56Q0NbW49PJYE+vY5PwPAAD///LJ5fzyZyJz/hf5c+e4OUGp4V8kyztgflADttNDHSz8xPx0/Yxj\n\t\t\t\t\t\t\t\txWKNM8WyjGs5qnhKlauMuUVVJLSnKwqo8RtOkwC2iaazyXBySquoiwJTh6les/RuE2DxBKpjjWCN\n\t\t\t\t\t\t\t\tIn1QThaytAQGpiq2phE43TAg0o05erqJCgx8OqH0cbCO0z7vlFpFeRnHeYlv/jP4uTsdTI2easvL\n\t\t\t\t\t\t\t\tGPtvhnyUSl9fZblZRuO8G7Z25jIijJJS2qpKCiluoqZ2wDhW6j7l7eanrWb05z/jX17+xZMWNSiB\n\t\t\t\t\t\t\t\tWnqrgHWOEDAHiAFLKGVGUWFRG8ECURZGAV6OqcICfMDeK9BbEgYSCRJMAtwtvDvFIenkG6iAgnkK\n\t\t\t\t\t\t\t\t2PCC16qCsGJKTJRV6N80PkERX1fDVGtgushI2Jiz7SyTrku7AtBZyn+eAMuky94BVy6D2gcLgIQM\n\t\t\t\t\t\t\t\tuI/KzmDooMg6j4FNgE2BjZmNgYmfkWUuQwvrXAZGAUYmxgDOBM4CYBUIq//sYa1nc1APUwhkD9e/\n\t\t\t\t\t\t\t\tFsYaluQFjIJQ/zEJgU2WdRBiAgq0QA1iTWAtYAUZBPIKxAyIfqBiiD72a8C0oMEQ5+DIIsYsIyqj\n\t\t\t\t\t\t\t\tIbFcbJn0drFt0hxqU6UEBMXlmVj4OKeKCPDz88m1yK8SZ2xhEuRt4VvFwCTABARamgxaBloBWgVa\n\t\t\t\t\t\t\t\tsIb4XyOBt5ZfoGEnbgkp3wXRgk8UkgoggYgkyfLl3zQOISFPJ9MUDZA7Y1el568yyDmTtG3vv2ns\n\t\t\t\t\t\t\t\tQoJezrphzDJ/njAZBhWrqChqS/x5wpJc4xmUnBCdcevsX1Umw+AioLg8PNaBvsMe6/zkxLoocbEO\n\t\t\t\t\t\t\t\tdBI40kFl2l1WNWCZBmqZKzoIic7gFFAEVof8wNpQVRpYUaiA8xGwFQIZRSCinc2q9m/vvztAuJfR\n\t\t\t\t\t\t\t\tlVEJ2Bhx/OeqrKyioBBlYhKoqqiupKgQaWkYyWQILIIOMtoDAAAA//9kmFtIFFEYx+ecmdm5rTuz\n\t\t\t\t\t\t\t\tzq5re1FndXHWNVfcaiVDV1qzxDtJgt3ATU2DtovpWiipqBH5pFZPUVhLPpQPUdhLPhZlkFFJvQpR\n\t\t\t\t\t\t\t\t5EPg646dM7NWFAsDCzPMN+d85//7/z9gBw5QqS2nPgcSfZ0Tqt/rLiqc6j466S8sUHBXLmgxuhKt\n\t\t\t\t\t\t\t\tEqZDVSQQhVExmtcqtsqnxJicYEfcnGPOKpnFnJumLMFlQ4V7LS5u3LykGBjHeeE3xv+c/O3F+pfk\n\t\t\t\t\t\t\t\tbTUHn/acnDiAlw2hfPWbdiOeQCgvaFUxyq+v1zU2+31aMb3Vj1j+RvsxP4NY/trCJo0dJdeobiKT\n\t\t\t\t\t\t\t\tKH8GzHEzRGqKaezgpTA1K4qCyKEUagvagJkZ55ZkfUetWO2rqlIBwx7n/9eE5Fqeo8vbcCmKaxpY\n\t\t\t\t\t\t\t\trJNLM0kzy9qyUxLVeb9rP4S4m04gig6hdSolRiNSWfBQdm2wHySEhKs/n8nFZkGxSGE6D10qrOhU\n\t\t\t\t\t\t\t\tOlXKQzYrQMH2QVF8SY/E4FJl9JdhLEkyS1HHnNYxxcnoEYbnLCjClMXLAKPrfgA14EZwwwBVwPAQ\n\t\t\t\t\t\t\t\tVnScjukcBjZKSeur0RVGq+iuokBJWwpDXB36LdSQ9lL7ObdZp7hqq8unW3q79h1Wr5XfnkGOjx/+\n\t\t\t\t\t\t\t\tWp3bvHL6yMCeWHgkMj0FYo8+lHuBKu90OpRgid9n5eyi+nD43qeQR1sP15QWq0V2wS757mC6bX0n\n\t\t\t\t\t\t\t\tB+l5wkXURYp52kVDUYgLUJAymKTAiy6XA32rBY8yCY/oAWyGNM6zZxn8maEQAoduw0NGsNaxh8c3\n\t\t\t\t\t\t\t\tPsPMYsDpG4VdeXpUEyIH944eX12ZmQE9oEV7DEVLbdTdkZnDi9aFtzBjEx2IF5va+Yr2/Hx/No/e\n\t\t\t\t\t\t\t\texelA47qRDpQGfHzJqepXu6Qz8gjzJDMQDvNidZZOgvozseQA2xSHUbcShnee1sNdqfr+qseFBQ4\n\t\t\t\t\t\t\t\t7VbswYXnr0CvYJMbakriu0DPlfqmj+/gl9T7tnM+n9erkG5USQ5SJDuqxERcXSLoreUnFolopHHz\n\t\t\t\t\t\t\t\tqFwG0bhII+uwA9bS7TSFfqZJ9AhNTZCQjIE+eBFchpQ+6VM4MUziC0FDUoRDRD+ec7JBtomFBCmh\n\t\t\t\t\t\t\t\t+1FwMGYGVb8AAAD//1yZQUgUURjHv+/NvDczu5LaJhqag7VCupVguBgEKRGEVpqVrsaqm5GlZrlq\n\t\t\t\t\t\t\t\t2q7aJZIOQccgkgo9tOGhsUJj0z1m0NWTHbxG0KUizHb73uyDJJaZ337/eTPv+x7DvPe+z/Uc6ZWR\n\t\t\t\t\t\t\t\tuT06zBSGIQyBgEx4liHygnQTbdxbcBJ1RL3n9xO9Z2tL06W39GUoJG8NeL4EoLwF6e1x6a3JG3hI\n\t\t\t\t\t\t\t\ta+dXNE5NuOD6S1yiSWdaZl1njbcGM+4JLryawYu0ci3Aa7U+HmejWoyPCC+TgeyjGIQMhAGvEScE\n\t\t\t\t\t\t\t\tE7lcL2bMqrKaLCanRyayocAxmb7cFks45Z7MlBuQCseHZWwOAaN/HqZjTroRY/iArW0izuoXwa1Y\n\t\t\t\t\t\t\t\t8LNfV6taHnflHv0BxdmK7/zAuV//qsDpNmON1moIcq3kluppZL3plu3F+/8Kx36TJJakh9+FuFYL\n\t\t\t\t\t\t\t\tGyIIRfwj9IpZWOZjsKx3Qlwfgkq+G5bFJ+jlnxVHoELcgRc8BK38EST0NxAidvBmCGkRCLj/FyBB\n\t\t\t\t\t\t\t\tz35KR8Icg4S0+ZTbLqFt0j0r0KXNUdsFeMYPQymvkW8Z2PRrgEHYwFH8wDg7wibYjGZqEe27XqqH\n\t\t\t\t\t\t\t\t9XV+gM8LFNfFa+OQMWTMGO/MCrPfTFo7rWZr3XPQE/WseqvdWP1Qo8aC0S6vDjroKzwoftJqA1+d\n\t\t\t\t\t\t\t\tt5J4HyqxBC5gufMlY9cPYzlUo59sPyAaRJr5XO6lcwZs7FB6u+I0RmAX6W1wElvJbs3qpMgU3Dec\n\t\t\t\t\t\t\t\tInuS2gRImcA4zVM2xsnOJ8aUfhvHoZw4TnYJcUzxFna6fQ5j1GWU9ALikOrzpuINxQF1vV/ZfYrX\n\t\t\t\t\t\t\t\tFK8qXnYy+fZ77FHdX8KIU2DXLWL3gs8XlHRy8oL1O7Bb+dGl2JllJoUR2mUGYYVshBxsohh9FPsZ\n\t\t\t\t\t\t\t\tJy9jL+JpJzdjJ/EUjWwjqRVZdb9UF3GP45PwOrqEx9EkCqWYREuNqZm9aDh/AQAA//90mktME0EY\n\t\t\t\t\t\t\t\tx3d2l1Kk7W5bWltq/bZSFLtqCSRG8cAG9aA90AAHKg3BhDtNikfdqkVBg4/6qtaDnsRemLaalMhD\n\t\t\t\t\t\t\t\tvfkKakTjWRQhhPjAwK1+SwmSGCb7y/znm93vP5Pdnd3DrHRWZu1ap23VpKKYzlo00WGUx2hJlmhR\n\t\t\t\t\t\t\t\tXilnCvB9xgsz38ygfZq6P+JclM/kU8IMb5DXyCvkJfICeYY8THnhLnInJcHtVA2kEi74mbTBg6QT\n\t\t\t\t\t\t\t\tbiV9cDNZDTdQK0mSxNOFX+R6wgnXEjJcTeDfWoJoRuFEubhXGIVR/yjnf0KYEXGEFfKEeUykZXWZ\n\t\t\t\t\t\t\t\tFZekJWWJU/8QcVFaZKWF4ALrn2+cb57naqciU2wuWwPZnBn8ucZcF43QyIeSr9Ne+IL4pzWD3HOc\n\t\t\t\t\t\t\t\tiGZUeITivboH3iFvVQkmVTM8RSaQy+OFcVYYI4Uxkhk2Q2SYiEPSEHtxoBYuDPhhQK2H/rgDziPn\n\t\t\t\t\t\t\t\t4kegL26Gs/EGiGOanvS9NE3/SPPKfSKGpbAS5n5jxjOqA06rRyGG9Sl0PIkE1S41onKi4AG7zQel\n\t\t\t\t\t\t\t\tOg84HT7gOQ9YLT7YtVvwyaaancL2HSZvtbCtyiR5hK1gcm1xGx3OSqPNvtlosVYYBdFsMBhNhrJN\n\t\t\t\t\t\t\t\t5QZdqd7A8SUGhrAGUYgJrKKL6ViFi3GswDQyzYzK8AKDSymjuHuwMcFM4juhdx3Qg9CgB26/Hph9\n\t\t\t\t\t\t\t\tegjWE2oJMIG2JmrFpy/Q2kTr5UBez7TQOjlAy4Id7RlCLoUwStl+vD1tlO/Ps1hZDh7raM8Tp9bd\n\t\t\t\t\t\t\t\tt7KVAVWexPoGB11rKhSS3bQ70NpOI+4QrdPEFXcIV3BZjvZGo1F5g5Kxa+7dLU2ZWV7b6HCczlYd\n\t\t\t\t\t\t\t\torOH6Zym56oOkdVL1+dAiUnXWsVjXWHkEyvx3v/sNhpH54YDLNr9K45O+S8AAAD//wMAppTnTw1l\n\t\t\t\t\t\t\t\tbmRzdHJlYW0NZW5kb2JqDTIzIDAgb2JqDTw8L0Jhc2VGb250L1RpbWVzTmV3Um9tYW4vRGVzY2Vu\n\t\t\t\t\t\t\t\tZGFudEZvbnRzWyAyMiAwIFJdL0VuY29kaW5nL0lkZW50aXR5LUgvTmFtZS9GNS9TdWJ0eXBlL1R5\n\t\t\t\t\t\t\t\tcGUwL1RvVW5pY29kZSA0MCAwIFIvVHlwZS9Gb250Pj4NZW5kb2JqDTIyIDAgb2JqDTw8L0Jhc2VG\n\t\t\t\t\t\t\t\tb250L1RpbWVzTmV3Um9tYW4vQ0lEU3lzdGVtSW5mbzw8L09yZGVyaW5nKElkZW50aXR5KS9SZWdp\n\t\t\t\t\t\t\t\tc3RyeShBZG9iZSkvU3VwcGxlbWVudCAxPj4vQ0lEVG9HSURNYXAgMzQgMCBSL0ZvbnREZXNjcmlw\n\t\t\t\t\t\t\t\tdG9yIDIxIDAgUi9TdWJ0eXBlL0NJREZvbnRUeXBlMi9UeXBlL0ZvbnQvVyA0NCAwIFI+Pg1lbmRv\n\t\t\t\t\t\t\t\tYmoNMjEgMCBvYmoNPDwvQXNjZW50IDEwMzkuNTUxL0NJRFNldCAzNSAwIFIvQ2FwSGVpZ2h0IDAv\n\t\t\t\t\t\t\t\tRGVzY2VudCAtMzA2LjY0MDYyNS9GbGFncyAzMi9Gb250QkJveFsgLTU2OC4zNTkzNzUgLTMwNi42\n\t\t\t\t\t\t\t\tNDA2MjUgMjA0NS44OTggMTAzOS41NTFdL0ZvbnRGaWxlMiAzMyAwIFIvRm9udE5hbWUvVGltZXNO\n\t\t\t\t\t\t\t\tZXdSb21hbi9JdGFsaWNBbmdsZSAwL1N0ZW1WIDAvVHlwZS9Gb250RGVzY3JpcHRvcj4+DWVuZG9i\n\t\t\t\t\t\t\t\tag0yMCAwIG9iag08PC9TL1VSSS9VUkkod3d3Lmdyb3VwcHJhY3RpY2UuY2gpPj4NZW5kb2JqDTE5\n\t\t\t\t\t\t\t\tIDAgb2JqDTw8L0EgMjAgMCBSL0JTPDwvUy9TL1R5cGUvQm9yZGVyL1cgMD4+L0YgNC9SZWN0WyAx\n\t\t\t\t\t\t\t\tOTQuMDQgMTk0LjUyMDUgMjg4Ljg0IDE4Mi41MjA1XS9TdWJ0eXBlL0xpbmsvVHlwZS9Bbm5vdD4+\n\t\t\t\t\t\t\t\tDWVuZG9iag0xOCAwIG9iag08PC9TL1VSSS9VUkkobWFpbHRvOnJlYWR5QGdydXBwZW5wcmF4aXMu\n\t\t\t\t\t\t\t\tY2gpPj4NZW5kb2JqDTE3IDAgb2JqDTw8L0EgMTggMCBSL0JTPDwvUy9TL1R5cGUvQm9yZGVyL1cg\n\t\t\t\t\t\t\t\tMD4+L0YgNC9SZWN0WyAxOTIuNiAyMDQuNDgwNSAyOTkuNzYgMTkyLjQ4MDVdL1N1YnR5cGUvTGlu\n\t\t\t\t\t\t\t\tay9UeXBlL0Fubm90Pj4NZW5kb2JqDTE2IDAgb2JqDTw8L0Jhc2VGb250L1ZlcmRhbmEsSXRhbGlj\n\t\t\t\t\t\t\t\tL0Rlc2NlbmRhbnRGb250c1sgMTUgMCBSXS9FbmNvZGluZy9JZGVudGl0eS1IL05hbWUvRjQvU3Vi\n\t\t\t\t\t\t\t\tdHlwZS9UeXBlMC9Ub1VuaWNvZGUgNDAgMCBSL1R5cGUvRm9udD4+DWVuZG9iag0xNSAwIG9iag08\n\t\t\t\t\t\t\t\tPC9CYXNlRm9udC9WZXJkYW5hLEl0YWxpYy9DSURTeXN0ZW1JbmZvPDwvT3JkZXJpbmcoSWRlbnRp\n\t\t\t\t\t\t\t\tdHkpL1JlZ2lzdHJ5KEFkb2JlKS9TdXBwbGVtZW50IDE+Pi9DSURUb0dJRE1hcCAzMSAwIFIvRm9u\n\t\t\t\t\t\t\t\tdERlc2NyaXB0b3IgMTQgMCBSL1N1YnR5cGUvQ0lERm9udFR5cGUyL1R5cGUvRm9udC9XIDQzIDAg\n\t\t\t\t\t\t\t\tUj4+DWVuZG9iag0xNCAwIG9iag08PC9Bc2NlbnQgMTA1MC43ODEvQ0lEU2V0IDMyIDAgUi9DYXBI\n\t\t\t\t\t\t\t\tZWlnaHQgMC9EZXNjZW50IC0zMDMuMjIyNjU2L0ZsYWdzIDMyL0ZvbnRCQm94WyAtNDUzLjEyNSAt\n\t\t\t\t\t\t\t\tMzAzLjIyMjY1NiAxNTg0Ljk2MSAxMDUwLjc4MV0vRm9udEZpbGUyIDMwIDAgUi9Gb250TmFtZS9W\n\t\t\t\t\t\t\t\tZXJkYW5hLEl0YWxpYy9JdGFsaWNBbmdsZSAwL1N0ZW1WIDAvVHlwZS9Gb250RGVzY3JpcHRvcj4+\n\t\t\t\t\t\t\t\tDWVuZG9iag0xMyAwIG9iag08PC9TL1VSSS9VUkkobWFpbHRvOmRvZUBzYW1wbGVkb21haW4uY2hJ\n\t\t\t\t\t\t\t\tRCk+Pg1lbmRvYmoNMTIgMCBvYmoNPDwvQSAxMyAwIFIvQlM8PC9TL1MvVHlwZS9Cb3JkZXIvVyAw\n\t\t\t\t\t\t\t\tPj4vRiA0L1JlY3RbIDE3MC44OCA3MTQuNzIwNSAyODAuNjggNzAyLjcyMDVdL1N1YnR5cGUvTGlu\n\t\t\t\t\t\t\t\tay9UeXBlL0Fubm90Pj4NZW5kb2JqDTExIDAgb2JqDTw8L0Jhc2VGb250L1ZlcmRhbmEvRGVzY2Vu\n\t\t\t\t\t\t\t\tZGFudEZvbnRzWyAxMCAwIFJdL0VuY29kaW5nL0lkZW50aXR5LUgvTmFtZS9GMy9TdWJ0eXBlL1R5\n\t\t\t\t\t\t\t\tcGUwL1RvVW5pY29kZSA0MCAwIFIvVHlwZS9Gb250Pj4NZW5kb2JqDTEwIDAgb2JqDTw8L0Jhc2VG\n\t\t\t\t\t\t\t\tb250L1ZlcmRhbmEvQ0lEU3lzdGVtSW5mbzw8L09yZGVyaW5nKElkZW50aXR5KS9SZWdpc3RyeShB\n\t\t\t\t\t\t\t\tZG9iZSkvU3VwcGxlbWVudCAxPj4vQ0lEVG9HSURNYXAgMjggMCBSL0ZvbnREZXNjcmlwdG9yIDkg\n\t\t\t\t\t\t\t\tMCBSL1N1YnR5cGUvQ0lERm9udFR5cGUyL1R5cGUvRm9udC9XIDQyIDAgUj4+DWVuZG9iag05IDAg\n\t\t\t\t\t\t\t\tb2JqDTw8L0FzY2VudCAxMDUwLjc4MS9DSURTZXQgMjkgMCBSL0NhcEhlaWdodCAwL0Rlc2NlbnQg\n\t\t\t\t\t\t\t\tLTMwMy4yMjI2NTYvRmxhZ3MgMzIvRm9udEJCb3hbIC01NTkuNTcwMzEzIC0zMDMuMjIyNjU2IDE1\n\t\t\t\t\t\t\t\tMjIuOTQ5IDEwNTAuNzgxXS9Gb250RmlsZTIgMjcgMCBSL0ZvbnROYW1lL1ZlcmRhbmEvSXRhbGlj\n\t\t\t\t\t\t\t\tQW5nbGUgMC9TdGVtViAwL1R5cGUvRm9udERlc2NyaXB0b3I+Pg1lbmRvYmoNOCAwIG9iag08PC9C\n\t\t\t\t\t\t\t\tYXNlRm9udC9WZXJkYW5hLEJvbGQvRGVzY2VuZGFudEZvbnRzWyA3IDAgUl0vRW5jb2RpbmcvSWRl\n\t\t\t\t\t\t\t\tbnRpdHktSC9OYW1lL0YyL1N1YnR5cGUvVHlwZTAvVG9Vbmljb2RlIDQwIDAgUi9UeXBlL0ZvbnQ+\n\t\t\t\t\t\t\t\tPg1lbmRvYmoNNyAwIG9iag08PC9CYXNlRm9udC9WZXJkYW5hLEJvbGQvQ0lEU3lzdGVtSW5mbzw8\n\t\t\t\t\t\t\t\tL09yZGVyaW5nKElkZW50aXR5KS9SZWdpc3RyeShBZG9iZSkvU3VwcGxlbWVudCAxPj4vQ0lEVG9H\n\t\t\t\t\t\t\t\tSURNYXAgMjUgMCBSL0ZvbnREZXNjcmlwdG9yIDYgMCBSL1N1YnR5cGUvQ0lERm9udFR5cGUyL1R5\n\t\t\t\t\t\t\t\tcGUvRm9udC9XIDQxIDAgUj4+DWVuZG9iag02IDAgb2JqDTw8L0FzY2VudCAxMDcxLjc3Ny9DSURT\n\t\t\t\t\t\t\t\tZXQgMjYgMCBSL0NhcEhlaWdodCAwL0Rlc2NlbnQgLTMwMy4yMjI2NTYvRmxhZ3MgMzIvRm9udEJC\n\t\t\t\t\t\t\t\tb3hbIC01NDkuODA0Njg4IC0zMDMuMjIyNjU2IDE3MDcuMDMxIDEwNzEuNzc3XS9Gb250RmlsZTIg\n\t\t\t\t\t\t\t\tMjQgMCBSL0ZvbnROYW1lL1ZlcmRhbmEsQm9sZC9JdGFsaWNBbmdsZSAwL1N0ZW1WIDAvVHlwZS9G\n\t\t\t\t\t\t\t\tb250RGVzY3JpcHRvcj4+DWVuZG9iag01IDAgb2JqDTw8L0RlY29kZVBhcm1zWyBudWxsXS9GaWx0\n\t\t\t\t\t\t\t\tZXJbL0ZsYXRlRGVjb2RlXS9MZW5ndGggNDM3OT4+c3RyZWFtCnjajJNNbsQwCEavwgkQtsGxT9B1\n\t\t\t\t\t\t\t\tVz1BfxaeSu39FzU2IEdVpUqJojf6eAPEIXiCBO/wBc/zLnVe2Jgog+SC1OCqXR/fr/ACnxpoJNgz\n\t\t\t\t\t\t\t\tPECkYQ8ezlPQqwqG6Zw+4A0wX42L/iEXZIZrPoiXLGHgCMwodaKHDdV0++mhOJs4Cwxn72f9wtVJ\n\t\t\t\t\t\t\t\t44ukz05EaIf/1Uqk/+7lV4XjX72sfTCmCpeufyoS0UotHIGpY16OHXZcDkqnIPeGJYfA0Ss8fRpy\n\t\t\t\t\t\t\t\t7zqxG4pc+jrd4OgVnj4NZZ6A2sKgqwocgV7h6dPgg7W9yZi77VUa15pslyseeO7BFTG5KYyjxvI3\n\t\t\t\t\t\t\t\tR8xmjpjdHMZRY/mbI6Zrfijo4NhG1Fj+7qgFs/Yxx9QvjoX3LItHMPE+qp53XhsV2bOYQ7gezvED\n\t\t\t\t\t\t\t\tAAD//4yUXQ6AIAyDb2QMIHoo7v8sP+1WFRLf/MzaNBubMTWsf3igzfsWZSpgn0p90lfyqRBlKmZh\n\t\t\t\t\t\t\t\tU4AFmRrWq4d1GR42BXiQqWG9eliX4WFTgAeZGtarx/uG5Xjq3gOLoOy9od8N/OINU0HHvGWRD5pe\n\t\t\t\t\t\t\t\tsJ9BpHqV5KMYuEzy6kgMlwYBFkHpiKHnwC92RAUdT8lBmnbkZxCpXiX5KAaukvhFjyG0l123Jh3t\n\t\t\t\t\t\t\t\tA1yM66L5KSN1j7qZe3IDvE0zIEPC8olD22U5yODucAMAAP//lFZBDsMgDPtRBQgGj+r/z6PFdoyE\n\t\t\t\t\t\t\t\tJu3oKHHiZSV+cOlrlUgnjC+/9HaNERqApaHU4XdJ0GYQhXqCgpg1zD9x1L69pcDiyCOtNw35wqEk\n\t\t\t\t\t\t\t\t9/fYSAmwlOS51xBCZDOIgD1JQIwSph8YWt62ARwM89/UXAWxqXieIxPxwtBQmm9D0GcAgVoWv9Cq\n\t\t\t\t\t\t\t\tYLYzkLTiQrNnxYUGTh3nZKUT+gykUNe6b5M1zD9xpM/2bQCH1xgws2KxyNGPzt/6tatycQzcEUhj\n\t\t\t\t\t\t\t\tBVTCgHlBBuVMt7InUK7J6zwROPvTf0aLmp+ztfYFAAD//5yXPU/DMBCG81NujIeGxI7TwFhRhi4w\n\t\t\t\t\t\t\t\teEMMFTSlEqRSG4Tg1/Oez6ZxQKpUZbj4fD4/fuOv/GnnHWfY+Feh9oHW8LlprC6wC5iiqeOPAi+8\n\t\t\t\t\t\t\t\tTyqBj9sBuW9aOLq685OTXOerSzxsQxcYq3unxzxzimYN5dlBYRvNs7UiA9Nnx+DvFLHZxACCX/uI\n\t\t\t\t\t\t\t\tPd7YM6Ayervg20urQ0iCapv0MathX6SvXWgb871JcCxuQ/RO3M8omlGSEB0BJjlj1DYOK2Y9Csrw\n\t\t\t\t\t\t\t\tG4m8tfif3IqWTmS38SbaEsTntdUWc31OdsyFqepYHfhiMKL6g/S2FiMUXmZgMVcfuAdF1zA3CVVV\n\t\t\t\t\t\t\t\t6hMWLqEXU1WlTbFuRaZ7RSzJMmhFQrli8bj8KpL3CZTha2kbtQonwlkq8w+VwfDaiV6LoAvr1MpM\n\t\t\t\t\t\t\t\t0iKPFqDRt4eoFduvoGkqnmlGnDhObHMxZ6P5qEg4K5GmOk3KOSuniKE/1A8AAAD//6RYywrCQAz0\n\t\t\t\t\t\t\t\tU7wL0m3rPvwCj4IHzyL1pCKK+vsmmVltZUXQU0i32c4kk3Rbg3kE2o7CGwM1Q5JcVdvCjcXCy3Fd\n\t\t\t\t\t\t\t\tEpRsgjvf+2HwCXyYFUtfWSyQXxSeod2h3DQdlXi23LPunn3ZvNSxGd0AuYNkj9ztyvnBbXi3o1uV\n\t\t\t\t\t\t\t\t+Pmkr/Gk5yJhV/9GzstGYJb4rEgbANAPEa3E1csnrGa82yftwzszEV/gnFKG91JXZEbR6ReNk8Ok\n\t\t\t\t\t\t\t\tDO0/SuajddZzdLuqD3ZPqKS0gFlCYHPt5vq1OgHelrG5IlPc3dCtwXnK7Hi4OZWzYZArBzVw22Jm\n\t\t\t\t\t\t\t\tgmlZDz3uLzH70BPzt8ys0YI5M9aosZiTAo/6I2mzzXA59FX3AAAA//+kWDEOwjAM/BEC0iSwIcHC\n\t\t\t\t\t\t\t\t0EdUdEJCIP4/4IvtOCQdqnTqEDU5x+fzxbbXKV/kwp0E8P9Anp0C2lABQStg5HCnzOWV1/G0zhxY\n\t\t\t\t\t\t\t\tZhPxRQAkwFl04G0tDJFdSFEmKpqPLOuRslz/9WJ0sagv2f+Bc/8azRFeiDXQp7lKJ23wMoNtLWXw\n\t\t\t\t\t\t\t\tzhhuJs4DiwKbDhR9CkOwKr8qTWhbTpLtPaXVKdE7sponTh4fBlyxUcWu+LYGYvBO0KRHdB8YjK4w\n\t\t\t\t\t\t\t\t+ivBVBLrrCQaUxXIiNLjgd4JvhsBRkVxF5XmV07WN2elSZeyTRi8aKsEWDxvrL4SmfaaHwAAAP//\n\t\t\t\t\t\t\t\tnJnNDYMwDIVX6QJIkJS/BXrtoRPQdgIqVWX7GvsZOzSiiBNIKBA7L5+fA+R0of3WOfXcIa9Rq+VA\n\t\t\t\t\t\t\t\ttxM2IcYEq5i9o04KkBhLFwIx9XBuY+ReI4niJhLTWX8Elll7pTNoUO8OiZ3tVTKDmRIOJF5UfGZG\n\t\t\t\t\t\t\t\tTi423JfugkLIiUrO2wL/TpCvXnV5wO7nYnSYEaOlJdjTkzU5EGABx4+mpnbYAGC154Kt1TEPGZO2\n\t\t\t\t\t\t\t\tJu0ccN237CtIrMerZysRk/q9syiqUpCfcW97cIg4fJnR6vMyzwjTtLDfvW/Da05Lh9iIw+Qkjuvv\n\t\t\t\t\t\t\t\tYPDbVqA2RG+xQcvPT7o7PvCo6CJV54+sz+tsfwEAAP//pFjLDsIgEPwVf6CxD2jLJ3g00aMnSb15\n\t\t\t\t\t\t\t\tURP9e7u4y/CwlcRjSymwOzO7g4+2NjWB2/NKWs+qQ4lE6znF5zr/FDYp4Bwhni9vOQJSzpPk2ngX\n\t\t\t\t\t\t\t\tN78sdNV+huR//OWTH6nqJylY229KYt1r6n66pkw6ljmsh5oDfGQjKwS+xAS+4mbBmcwXdY8BhbdA\n\t\t\t\t\t\t\t\t38hpGnLeTzAObbBWkTqwKty9M8yQNxdNikZTyPMV5CkDu7pDmkLrJ7c3Tm9TSvKgTNn4KQkAVUDn\n\t\t\t\t\t\t\t\tXEaqEV4LwMo85yLmbChBw/dyoFtFPeJ84H78rxzo1qBF3PPSD/DHwWVBvRGv0+ENAAD//6SYQRKC\n\t\t\t\t\t\t\t\tMAxFr6QYS6/g1htgHXbMOIL3N9aEpAkV0WFJmYbm5f+kJqnYf77u8zDMtvkzq7sofnVmkKkwOyzi\n\t\t\t\t\t\t\t\tikD0Zfbu64kD3wGsFfwHbDr+4Co1lgMzs4CLc5DMbwWzooGarsSNmCZw2dSS3YH/xPhNJcrRYwvx\n\t\t\t\t\t\t\t\tkE39GL6cbercQoxi6id9mhpNkqiB9bsQI4+x1i9aeyn7mMd70cQcknDKbd3sO42X1eXtucjUoGU1\n\t\t\t\t\t\t\t\tEkLuOfeB6/1nd4bQencmIhI+TMSIT0+nRq/NZH2bO/tM2BMAAP//pFnBDoMgDP0iEwlzwnn+yEJ2\n\t\t\t\t\t\t\t\tWOIJT/v7gW1p7RA1uxATMEDb1/daeJ67SirSUfrX0Sb5dfvTlSgDa61vZbkjdaocbRir5J0Jd6ND\n\t\t\t\t\t\t\t\tPDPRuorM1WogqNZUoJVkvg/6AOc7+oiiT/fid4IRVF/nGdmxgjObR9Pbf4uFW6rpC6U+cN8Zrv7m\n\t\t\t\t\t\t\t\t5DH8SnqM9VnwIl7BbZOfl8mvwBURCLZjwLhdgQWeN/3acruf5cWG783AvDgpPbkkp0RyB3nyqm6V\n\t\t\t\t\t\t\t\tJXBbtwZRCMSdXi3ndwUQkbTHw1NW0GS9z1SexiaTfwEAAP//nJnBDoIwDIZ9FI+SaCCpk/EMetDE\n\t\t\t\t\t\t\t\tIyc97KAhBk14fZV1bddsBrzCRmjXfu3fTXFpBVzJj0GHkUFOdWxUQK+CGqON7arwmbONzgS9VdI6\n\t\t\t\t\t\t\t\t3B9sbIuEddbLzMZMrEh586ARMvNATdxFjQN7Rho/irHYC6MUfF9aaHpfnChCAncWN3JDGdaefR4R\n\t\t\t\t\t\t\t\tk9Y+3SjKfoyXuvjzXdxcJD1bj4qyNhg3f1MYrBCUe03cIT7rJVWSu/9TMVPBxtsxvuSLRLsCxswp\n\t\t\t\t\t\t\t\tJHmMwq7KDFyQaY7dK/HIELWCoUp3PegGeiNV2pP7W6EEEaXz0QrfSvCJ8dxlxhsAAP//pJrNDoIw\n\t\t\t\t\t\t\t\tEISfSCMUgnjVxOcATeBAOEiMr29Ztrvd7RL8uRJSJiWdznzt5zjGuaim+UCfRexchApcASsh9cuQ\n\t\t\t\t\t\t\t\tvAkK6tSk+WCwkybKFjVI91VABod9SbNHMtSrTHELlSQM1ofCQYu9ZYCxK1IohW9NiexRdp27ZE4t\n\t\t\t\t\t\t\t\tR5HSLLjWFA0Si3Xkd2pGmuBgK71L/VUFgqRLngzY7g4l4CtE2j9FnfkmG2xvlHPiEjyRwjxSY8PP\n\t\t\t\t\t\t\t\t0QLHWVHt4Ruz0rx2/xyU+sZ/VHKvi7AHSXvKhKnzOt4haPwc67Cqg8cZfyIet/J+AU8vWFxgxDcA\n\t\t\t\t\t\t\t\tAAD//7RaOQ6EMAz8Ci9AwsvhlFS8A1FvtSvx/TWKg68UCLQlEkGOmcw4Hr/EqOHF74C31q6f8yMD\n\t\t\t\t\t\t\t\tZpd+UamLUQudY4r1/Cq9mTBHpyvpRWYR+ngEJAsOrypNMMY0Xbj3VstyxgBQuUFKNz2HAKTODLdo\n\t\t\t\t\t\t\t\tN3NT7G5P0Ec44qt7n9pQdl0AqO6DtkDiTsp82wQp+8BO1B3dPANaT97NM7AHmyoqv6lyd8oYCcwB\n\t\t\t\t\t\t\t\twzHC1/TQjg+YAw7jsvyH2TKHdAWGeMmpcgTHRCi57/2WxOrA/s8RPwAAAP//vJrbDYAgDAA3MryR\n\t\t\t\t\t\t\t\tKUwcwRF0/0TLu1j5wfCNBGvJVcoBI4h41Bo2qxgRemJA2jdB8I6HN1WmMhko+Lj3eGGPD+6BDw/V\n\t\t\t\t\t\t\t\tKhbBKwNhb240SfDUWCvgcZgKCTyRK1/9FPztLeZO5+xW/nD7/UGJC/lW1kkTDnxPcuZno/3CGrHG\n\t\t\t\t\t\t\t\tkqmX/ixuzQ+Zl2rJzlOlV0xinQCd4A/UgbI6k3MpAOiKBPuaDZcdrmlL6wYAAP//rJrNDoMgDICf\n\t\t\t\t\t\t\t\taAl1SOjN0x7ExMyTh3nx8UWw0PKzLGEnE4kHP1tK69fnIv3gZw1SvNDyoTFpWxWpy1SxqDAsGuwf\n\t\t\t\t\t\t\t\tqrFiEfpyb+9HYPQXIeEIQ2MO5PbVPBctBYiSB7/NpCwseZCWYZrKVgkE8Ap0MKpDDwk4AMdOP+tT\n\t\t\t\t\t\t\t\tPef5pelqNpCckgcfwWWG45aWUeysh2zT9ihk0WayVvnYkEca+/MILMsjB0GzkjHLotwMG2or75Oz\n\t\t\t\t\t\t\t\tuzwhfep3bKUzmSCD9a3WE44lZlWT0gkAAP//grWqDM2MwDN/xK7gxdGsMjQD7fVEjKUhLytOR5lZ\n\t\t\t\t\t\t\t\tzsHmCFPwQjozCt1gaoboZUFtw960wxxk0YWt6bbAGBKHy6LOUWFtD0JDkyrtJ+QgHW0+DdrmEzQF\n\t\t\t\t\t\t\t\tG5lCdgpQMlEKWmtigNJmNsaSDBPhu18sUJMyckJPRfT1dS0xV4hZaQIAAAD//8KWeCF+IH62F1/i\n\t\t\t\t\t\t\t\tRfYIdLUeYiQwCXV4LgfRMddFGhfzRszZFKO1GtHm+NHGAdGGFI1Rm2n+SAUnVAP6OF0RgaWOWFOA\n\t\t\t\t\t\t\t\tgTl4K4QRkQOuuFKAoRFiHisAFl+wYSvETBvyIqJK1OlrtPFmaGkG48KMKkP4GSWlYC/XIJ6jSpMU\n\t\t\t\t\t\t\t\txYew4gYW9S4IV5rD5m1RVmPANCRirG7IR515yUddr4cYLAUb44k6MIwxDwzjog2GpmILHAtLPRPw\n\t\t\t\t\t\t\t\tJjlTM8pbppbGeuaGlpaWaOPtmMNs0JxQhDG4jDbBaIjNyeaWAAAAAP//vFtdDoIwDOYoXAA3GEzw\n\t\t\t\t\t\t\t\tBN4DEkV5Az2/++nXdcTEFzU8ELZ2+9p1GV1btzs95C+4Sb1DbLU2//WVdBnqOeuh7IYQ+e3b+qPe\n\t\t\t\t\t\t\t\tOwd2L4V2bY2vmWQfySBpjoPaWcAV2Uo45mpBXaYL/MomI9yYEAQi7wWXTEfRvZ99IrKZrZw5L9w1\n\t\t\t\t\t\t\t\tEjGYFh5uikyzOEJQ0GhztBUJaWItII+5/kb5voLC2V+2AlDN7ASA2k6F8g/wU3q9b11TGR7SGQKH\n\t\t\t\t\t\t\t\tQuBiCU6UFV1X+q6wYaD9h8i79e97HEGFnxUrJoGibgxw5ApUUp4qzhxUBoADfe+BKF9U2ApzglCb\n\t\t\t\t\t\t\t\t9yHqN/aQpktLJJgNpYoGZT2jFE0O4gUAAP//AlVpELudkRYemCHZ4YzRrIKsKYQr0ENME1hirFKm\n\t\t\t\t\t\t\t\tYv401jMxB5aISBsbYa0ES2g9Zoa9+WeMUfxRzVWmRkagvSY4nGYE35YEC2pswrAYgUkbQqQtoFwd\n\t\t\t\t\t\t\t\tpJrPGCEN02UF14c6WhKoAAAAAP//AwB/GsB4DWVuZHN0cmVhbQ1lbmRvYmoNNCAwIG9iag08PC9B\n\t\t\t\t\t\t\t\tbm5vdHNbIDEyIDAgUiAxNyAwIFIgMTkgMCBSXS9Db250ZW50cyA1IDAgUi9NZWRpYUJveFsgMCAw\n\t\t\t\t\t\t\t\tIDU5NS4zMiA4NDEuOTJdL1BhcmVudCAxIDAgUi9SZXNvdXJjZXMgMyAwIFIvVHlwZS9QYWdlPj4N\n\t\t\t\t\t\t\t\tZW5kb2JqDTMgMCBvYmoNPDwvRm9udDw8L0YyIDggMCBSL0YzIDExIDAgUi9GNCAxNiAwIFIvRjUg\n\t\t\t\t\t\t\t\tMjMgMCBSPj4+Pg1lbmRvYmoNMiAwIG9iag08PC9NYXJrSW5mbzw8L01hcmtlZCB0cnVlPj4vTWV0\n\t\t\t\t\t\t\t\tYWRhdGEgMzkgMCBSL09wZW5BY3Rpb25bIDQgMCBSL0ZpdF0vT3V0cHV0SW50ZW50c1sgMzggMCBS\n\t\t\t\t\t\t\t\tXS9QYWdlTGF5b3V0L09uZUNvbHVtbi9QYWdlTW9kZS9Vc2VOb25lL1BhZ2VzIDEgMCBSL1N0cnVj\n\t\t\t\t\t\t\t\tdFRyZWVSb290PDwvVHlwZS9TdHJ1Y3RUcmVlUm9vdD4+L1R5cGUvQ2F0YWxvZy9WaWV3ZXJQcmVm\n\t\t\t\t\t\t\t\tZXJlbmNlczw8L0NlbnRlcldpbmRvdyB0cnVlL0RpcmVjdGlvbi9MMlIvRGlzcGxheURvY1RpdGxl\n\t\t\t\t\t\t\t\tIGZhbHNlL0ZpdFdpbmRvdyBmYWxzZS9IaWRlTWVudWJhciBmYWxzZS9IaWRlVG9vbGJhciBmYWxz\n\t\t\t\t\t\t\t\tZS9IaWRlV2luZG93VUkgZmFsc2UvTm9uRnVsbFNjcmVlblBhZ2VNb2RlL1VzZU5vbmUvUHJpbnRB\n\t\t\t\t\t\t\t\tcmVhL0Nyb3BCb3gvUHJpbnRDbGlwL0Nyb3BCb3gvVmlld0FyZWEvQ3JvcEJveC9WaWV3Q2xpcC9D\n\t\t\t\t\t\t\t\tcm9wQm94Pj4+Pg1lbmRvYmoNMSAwIG9iag08PC9Db3VudCAxL0tpZHNbIDQgMCBSXS9UeXBlL1Bh\n\t\t\t\t\t\t\t\tZ2VzPj4NZW5kb2JqDXhyZWYNCjAgNDUNCjAwMDAwMDAwMDAgNjU1MzUgZg0KMDAwMDA3MTU1MyAw\n\t\t\t\t\t\t\t\tMDAwMCBuDQowMDAwMDcxMDk3IDAwMDAwIG4NCjAwMDAwNzEwMjkgMDAwMDAgbg0KMDAwMDA3MDg5\n\t\t\t\t\t\t\t\tNiAwMDAwMCBuDQowMDAwMDY2NDI4IDAwMDAwIG4NCjAwMDAwNjYyMDMgMDAwMDAgbg0KMDAwMDA2\n\t\t\t\t\t\t\t\tNjAxNSAwMDAwMCBuDQowMDAwMDY1ODgwIDAwMDAwIG4NCjAwMDAwNjU2NjAgMDAwMDAgbg0KMDAw\n\t\t\t\t\t\t\t\tMDA2NTQ3NiAwMDAwMCBuDQowMDAwMDY1MzQ0IDAwMDAwIG4NCjAwMDAwNjUyMjAgMDAwMDAgbg0K\n\t\t\t\t\t\t\t\tMDAwMDA2NTE1OSAwMDAwMCBuDQowMDAwMDY0OTM0IDAwMDAwIG4NCjAwMDAwNjQ3NDIgMDAwMDAg\n\t\t\t\t\t\t\t\tbg0KMDAwMDA2NDYwMyAwMDAwMCBuDQowMDAwMDY0NDgwIDAwMDAwIG4NCjAwMDAwNjQ0MTggMDAw\n\t\t\t\t\t\t\t\tMDAgbg0KMDAwMDA2NDI5NCAwMDAwMCBuDQowMDAwMDY0MjQxIDAwMDAwIG4NCjAwMDAwNjQwMTQg\n\t\t\t\t\t\t\t\tMDAwMDAgbg0KMDAwMDA2MzgyMyAwMDAwMCBuDQowMDAwMDYzNjg1IDAwMDAwIG4NCjAwMDAwNTYx\n\t\t\t\t\t\t\t\tMzUgMDAwMDAgbg0KMDAwMDA1NTk1NyAwMDAwMCBuDQowMDAwMDU1ODM5IDAwMDAwIG4NCjAwMDAw\n\t\t\t\t\t\t\t\tNDAxMTMgMDAwMDAgbg0KMDAwMDAzOTkwOCAwMDAwMCBuDQowMDAwMDM5Nzg5IDAwMDAwIG4NCjAw\n\t\t\t\t\t\t\t\tMDAwMzAzMTEgMDAwMDAgbg0KMDAwMDAzMDEzMSAwMDAwMCBuDQowMDAwMDMwMDEyIDAwMDAwIG4N\n\t\t\t\t\t\t\t\tCjAwMDAwMDYwMTkgMDAwMDAgbg0KMDAwMDAwNTg0MCAwMDAwMCBuDQowMDAwMDA1NzIyIDAwMDAw\n\t\t\t\t\t\t\t\tIG4NCjAwMDAwMDU1NjYgMDAwMDAgbg0KMDAwMDAwNDc0NiAwMDAwMCBuDQowMDAwMDA0NTYyIDAw\n\t\t\t\t\t\t\t\tMDAwIG4NCjAwMDAwMDIyMjAgMDAwMDAgbg0KMDAwMDAwMTkwMSAwMDAwMCBuDQowMDAwMDAxNDk3\n\t\t\t\t\t\t\t\tIDAwMDAwIG4NCjAwMDAwMDA4NzcgMDAwMDAgbg0KMDAwMDAwMDQzOCAwMDAwMCBuDQowMDAwMDAw\n\t\t\t\t\t\t\t\tMDE1IDAwMDAwIG4NCnRyYWlsZXINCjw8L0lEWyiahmNmMupBpJtHX+1xBYWyhbIpKGdOubJSn0K6\n\t\t\t\t\t\t\t\treX2FuXKRptGmyldL0luZm8gMzYgMCBSL1Jvb3QgMiAwIFIvU2l6ZSA0NT4+DQpzdGFydHhyZWYN\n\t\t\t\t\t\t\t\tCjcxNjA1DQolJUVPRg=="}}]}