{"resourceType":"Bundle","id":"4-sepsis","meta":{"versionId":"1","lastUpdated":"2019-04-01T20:18:41.341+00:00","profile":["http://fhir.ch/ig/ch-orf/StructureDefinition/ch-orf-document"]},"identifier":{"system":"urn:ietf:rfc:3986","value":"urn:uuid:26d3dff7-ab05-4737-a49c-5eccd33595f8"},"type":"document","timestamp":"2019-04-01T20:18:41.341+00:00","entry":[{"fullUrl":"http://example.com/fhir/Composition/referral-min","resource":{"resourceType":"Composition","id":"4-sepsis","meta":{"versionId":"1","lastUpdated":"2021-02-18T17:04:38.520+00:00","profile":["http://fhir.ch/ig/ch-orf/StructureDefinition/ch-orf-composition"]},"text":{"status":"additional","div":"<div xmlns=\"http://www.w3.org/1999/xhtml\"><div>Laboratory Order</div></div>"},"extension":[{"extension":[{"url":"enterer","valueReference":{"reference":"PractitionerRole/HansHauserKantonsspital"}}],"url":"http://fhir.ch/ig/ch-core/StructureDefinition/ch-ext-epr-dataenterer"},{"url":"http://fhir.ch/ig/ch-orf/StructureDefinition/ch-orf-urgentnoficationcontactforthisdocument","valueReference":{"reference":"PractitionerRole/EvaErlenmeyerLaborPipette"}},{"url":"http://fhir.ch/ig/ch-orf/StructureDefinition/ch-orf-urgentnoficationcontactfortheresponsetothisdocument","valueReference":{"reference":"PractitionerRole/HansHauserKantonsspital"}},{"url":"http://fhir.ch/ig/ch-orf/StructureDefinition/ch-orf-receiver","valueReference":{"reference":"PractitionerRole/EvaErlenmeyerLaborPipette"}},{"url":"http://fhir.ch/ig/ch-orf/StructureDefinition/ch-orf-copyreceiver","valueReference":{"reference":"Organization/Gruppenpraxis"}},{"url":"http://fhir.ch/ig/ch-orf/StructureDefinition/ch-orf-copyreceiver","valueReference":{"reference":"Patient/KlebsiellaKeller"}}],"status":"final","type":{"coding":[{"system":"http://snomed.info/sct","code":"721965002","display":"Laboratory order (record artifact)"}]},"category":[{"coding":[{"system":"http://snomed.info/sct","code":"721963009","display":"Order (record artifact)"}]}],"subject":{"reference":"Patient/KlebsiellaKeller"},"date":"2019-03-31T11:46:09+02:00","author":[{"reference":"PractitionerRole/HansHauserKantonsspital"}],"title":"Referral 4-sepsis","section":[{"title":"Order-Referral-Form 4-sepsis","code":{"coding":[{"system":"http://loinc.org","code":"93037-0","display":"Portable medical order form"}]},"text":{"status":"generated","div":"<div xmlns=\"http://www.w3.org/1999/xhtml\">Order-Referral-Form 4-sepsis</div>"},"entry":[{"reference":"Questionnaire/4-sepsis"},{"reference":"QuestionnaireResponse/4-sepsis"},{"reference":"ServiceRequest/4-sepsis"}]}]}},{"fullUrl":"http://example.com/fhir/Patient/KlebsiellaKeller","resource":{"resourceType":"Patient","id":"KlebsiellaKeller","meta":{"profile":["http://fhir.ch/ig/ch-core/StructureDefinition/ch-core-patient"]},"text":{"status":"extensions","div":"<div xmlns=\"http://www.w3.org/1999/xhtml\"><p><b>Generated Narrative</b></p><p><b>Birth Place</b>: Aarau Schweiz </p><p><b>Place of origin according to eCH-0011</b>: Lenzburg AG </p><p><b>religion</b>: <span title=\"Codes: {http://terminology.hl7.org/CodeSystem/v3-ReligiousAffiliation 1025}\">Jehovah's Witnesses</span></p><p><b>identifier</b>: Medical record number: 012/08.111105</p><p><b>name</b>: Keller Klebsiella </p><p><b>gender</b>: female</p><p><b>birthDate</b>: 1975-12-12</p><p><b>maritalStatus</b>: <span title=\"Codes: {http://fhir.ch/ig/ch-core/CodeSystem/ech-11-maritalstatus 2}\">verheiratet</span></p><h3>Communications</h3><table class=\"grid\"><tr><td>-</td><td><b>Language</b></td><td><b>Preferred</b></td></tr><tr><td>*</td><td><span title=\"Codes: {urn:ietf:bcp:47 de-CH}\">Deutsch (Schweiz)</span></td><td>true</td></tr></table></div>"},"extension":[{"url":"http://hl7.org/fhir/StructureDefinition/patient-birthPlace","valueAddress":{"city":"Aarau","country":"Schweiz"}},{"url":"http://fhir.ch/ig/ch-core/StructureDefinition/ch-core-patient-ech-11-placeoforigin","valueAddress":{"city":"Lenzburg","state":"AG"}},{"url":"http://hl7.org/fhir/StructureDefinition/patient-religion","valueCodeableConcept":{"coding":[{"system":"http://terminology.hl7.org/CodeSystem/v3-ReligiousAffiliation","code":"1025","display":"Jehovah's Witnesses"}]}}],"identifier":[{"type":{"coding":[{"system":"http://terminology.hl7.org/CodeSystem/v2-0203","code":"MR"}]},"system":"urn:oid:2.16.756.5.30.999999.1","value":"012/08.111105"}],"name":[{"family":"Klebsiella","given":["Keller"]}],"gender":"female","birthDate":"1975-12-12","maritalStatus":{"coding":[{"system":"http://fhir.ch/ig/ch-core/CodeSystem/ech-11-maritalstatus","code":"2","display":"verheiratet"}]},"communication":[{"language":{"coding":[{"system":"urn:ietf:bcp:47","code":"de-CH"}],"text":"Deutsch (Schweiz)"},"preferred":true}]}},{"fullUrl":"http://example.com/fhir/Practitioner/HansHauser","resource":{"resourceType":"Practitioner","id":"HansHauser","meta":{"profile":["http://fhir.ch/ig/ch-core/StructureDefinition/ch-core-practitioner"]},"text":{"status":"generated","div":"<div xmlns=\"http://www.w3.org/1999/xhtml\"><p><b>Generated Narrative</b></p><p><b>identifier</b>: id: 7601000050701</p><p><b>name</b>: Hans Hauser </p></div>"},"identifier":[{"system":"urn:oid:2.51.1.3","value":"7601000050701"}],"name":[{"family":"Hauser","given":["Hans"]}]}},{"fullUrl":"http://example.com/fhir/Organization/Kantonsspital","resource":{"resourceType":"Organization","id":"Kantonsspital","meta":{"profile":["http://fhir.ch/ig/ch-core/StructureDefinition/ch-core-organization-epr"]},"text":{"status":"generated","div":"<div xmlns=\"http://www.w3.org/1999/xhtml\"><p><b>Generated Narrative</b></p><p><b>identifier</b>: id: 76010002342000</p><p><b>name</b>: Kantonsspital Zug</p><p><b>telecom</b>: <a href=\"tel:+41778845566\">+41778845566</a>, <a href=\"mailto:info@kantonsspital-zug.ch\">info@kantonsspital-zug.ch</a>, <a href=\"http://www.kanstonsspital-zug.ch\">http://www.kanstonsspital-zug.ch</a></p><p><b>address</b>: Seepromende 77 Arth 6415 CH </p></div>"},"identifier":[{"system":"urn:oid:2.51.1.3","value":"76010002342000"}],"name":"Kantonsspital Zug","telecom":[{"system":"phone","value":"+41778845566","use":"work"},{"system":"email","value":"info@kantonsspital-zug.ch","use":"work"},{"system":"url","value":"http://www.kanstonsspital-zug.ch","use":"work"}],"address":[{"line":["Seepromende 77"],"city":"Arth","postalCode":"6415","country":"CH"}]}},{"fullUrl":"http://example.com/fhir/PractitionerRole/HansHauserKantonsspital","resource":{"resourceType":"PractitionerRole","id":"HansHauserKantonsspital","meta":{"profile":["http://fhir.ch/ig/ch-core/StructureDefinition/ch-core-practitionerrole"]},"text":{"status":"generated","div":"<div xmlns=\"http://www.w3.org/1999/xhtml\"><p><b>Generated Narrative</b></p><p><b>practitioner</b>: <a href=\"#Practitioner_HansHauser\">See above (Practitioner/HansHauser)</a></p><p><b>organization</b>: <a href=\"#Organization_Kantonsspital\">See above (Organization/Kantonsspital)</a></p></div>"},"practitioner":{"reference":"Practitioner/HansHauser"},"organization":{"reference":"Organization/Kantonsspital"}}},{"fullUrl":"http://example.com/fhir/Questionnaire/4-sepsis","resource":{"resourceType":"Composition","id":"4-sepsis","meta":{"versionId":"1","lastUpdated":"2021-02-18T17:04:38.520+00:00","profile":["http://fhir.ch/ig/ch-orf/StructureDefinition/ch-orf-composition"]},"text":{"status":"additional","div":"<div xmlns=\"http://www.w3.org/1999/xhtml\"><div>Laboratory Order</div></div>"},"extension":[{"extension":[{"url":"enterer","valueReference":{"reference":"PractitionerRole/HansHauserKantonsspital"}}],"url":"http://fhir.ch/ig/ch-core/StructureDefinition/ch-ext-epr-dataenterer"},{"url":"http://fhir.ch/ig/ch-orf/StructureDefinition/ch-orf-urgentnoficationcontactforthisdocument","valueReference":{"reference":"PractitionerRole/EvaErlenmeyerLaborPipette"}},{"url":"http://fhir.ch/ig/ch-orf/StructureDefinition/ch-orf-urgentnoficationcontactfortheresponsetothisdocument","valueReference":{"reference":"PractitionerRole/HansHauserKantonsspital"}},{"url":"http://fhir.ch/ig/ch-orf/StructureDefinition/ch-orf-receiver","valueReference":{"reference":"PractitionerRole/EvaErlenmeyerLaborPipette"}},{"url":"http://fhir.ch/ig/ch-orf/StructureDefinition/ch-orf-copyreceiver","valueReference":{"reference":"Organization/Gruppenpraxis"}},{"url":"http://fhir.ch/ig/ch-orf/StructureDefinition/ch-orf-copyreceiver","valueReference":{"reference":"Patient/KlebsiellaKeller"}}],"status":"final","type":{"coding":[{"system":"http://snomed.info/sct","code":"721965002","display":"Laboratory order (record artifact)"}]},"category":[{"coding":[{"system":"http://snomed.info/sct","code":"721963009","display":"Order (record artifact)"}]}],"subject":{"reference":"Patient/KlebsiellaKeller"},"date":"2019-03-31T11:46:09+02:00","author":[{"reference":"PractitionerRole/HansHauserKantonsspital"}],"title":"Referral 4-sepsis","section":[{"title":"Order-Referral-Form 4-sepsis","code":{"coding":[{"system":"http://loinc.org","code":"93037-0","display":"Portable medical order form"}]},"text":{"status":"generated","div":"<div xmlns=\"http://www.w3.org/1999/xhtml\">Order-Referral-Form 4-sepsis</div>"},"entry":[{"reference":"Questionnaire/4-sepsis"},{"reference":"QuestionnaireResponse/4-sepsis"},{"reference":"ServiceRequest/4-sepsis"}]}]}},{"fullUrl":"http://example.com/fhir/QuestionnaireResponse/4-sepsis","resource":{"resourceType":"Composition","id":"4-sepsis","meta":{"versionId":"1","lastUpdated":"2021-02-18T17:04:38.520+00:00","profile":["http://fhir.ch/ig/ch-orf/StructureDefinition/ch-orf-composition"]},"text":{"status":"additional","div":"<div xmlns=\"http://www.w3.org/1999/xhtml\"><div>Laboratory Order</div></div>"},"extension":[{"extension":[{"url":"enterer","valueReference":{"reference":"PractitionerRole/HansHauserKantonsspital"}}],"url":"http://fhir.ch/ig/ch-core/StructureDefinition/ch-ext-epr-dataenterer"},{"url":"http://fhir.ch/ig/ch-orf/StructureDefinition/ch-orf-urgentnoficationcontactforthisdocument","valueReference":{"reference":"PractitionerRole/EvaErlenmeyerLaborPipette"}},{"url":"http://fhir.ch/ig/ch-orf/StructureDefinition/ch-orf-urgentnoficationcontactfortheresponsetothisdocument","valueReference":{"reference":"PractitionerRole/HansHauserKantonsspital"}},{"url":"http://fhir.ch/ig/ch-orf/StructureDefinition/ch-orf-receiver","valueReference":{"reference":"PractitionerRole/EvaErlenmeyerLaborPipette"}},{"url":"http://fhir.ch/ig/ch-orf/StructureDefinition/ch-orf-copyreceiver","valueReference":{"reference":"Organization/Gruppenpraxis"}},{"url":"http://fhir.ch/ig/ch-orf/StructureDefinition/ch-orf-copyreceiver","valueReference":{"reference":"Patient/KlebsiellaKeller"}}],"status":"final","type":{"coding":[{"system":"http://snomed.info/sct","code":"721965002","display":"Laboratory order (record artifact)"}]},"category":[{"coding":[{"system":"http://snomed.info/sct","code":"721963009","display":"Order (record artifact)"}]}],"subject":{"reference":"Patient/KlebsiellaKeller"},"date":"2019-03-31T11:46:09+02:00","author":[{"reference":"PractitionerRole/HansHauserKantonsspital"}],"title":"Referral 4-sepsis","section":[{"title":"Order-Referral-Form 4-sepsis","code":{"coding":[{"system":"http://loinc.org","code":"93037-0","display":"Portable medical order form"}]},"text":{"status":"generated","div":"<div xmlns=\"http://www.w3.org/1999/xhtml\">Order-Referral-Form 4-sepsis</div>"},"entry":[{"reference":"Questionnaire/4-sepsis"},{"reference":"QuestionnaireResponse/4-sepsis"},{"reference":"ServiceRequest/4-sepsis"}]}]}},{"fullUrl":"http://example.com/fhir/ServiceRequest/4-sepsis","resource":{"resourceType":"ServiceRequest","id":"4-sepsis","meta":{"profile":["http://fhir.ch/ig/ch-orf/StructureDefinition/ch-orf-servicerequest"]},"text":{"status":"generated","div":"<div xmlns=\"http://www.w3.org/1999/xhtml\"><p><b>Generated Narrative</b></p><p><b>identifier</b>: Placer Identifier: 123, Filler Identifier: 456</p><p><b>status</b>: active</p><p><b>intent</b>: original-order</p><p><b>category</b>: <span title=\"Codes: {http://snomed.info/sct 108252007}\">Laboratory procedure (procedure)</span></p><p><b>priority</b>: urgent</p><p><b>subject</b>: <a href=\"#Patient_KlebsiellaKeller\">See above (Patient/KlebsiellaKeller)</a></p><p><b>requester</b>: <a href=\"#PractitionerRole_HansHauserKantonsspital\">See above (PractitionerRole/HansHauserKantonsspital)</a></p><p><b>reasonCode</b>: <span title=\"Codes: {http://snomed.info/sct 870441004}\">Screening for sepsis (procedure)</span></p><p><b>insurance</b>: <a href=\"Coverage-HealthInsuranceCard.html\">Generated Summary: id: A123456780; status: active; <span title=\"Codes: {http://terminology.hl7.org/CodeSystem/v3-ActCode EHCPOL}\">extended healthcare</span>; period: ?ngen-2? --&gt; 2012-03-17</a></p><p><b>specimen</b>: </p><ul><li><a href=\"Specimen-blood-bactec-plus.html\">Generated Summary: id: 88888-15394-75465; id: 77777-bc987-dd888; status: available; <span title=\"Codes: {http://snomed.info/sct 119297000}\">Blood sample</span>; receivedTime: Aug 16, 2020, 6:40:17 PM</a></li><li><a href=\"Specimen-blood.html\">Generated Summary: status: available; <span title=\"Codes: {http://snomed.info/sct 119297000}\">Blood sample</span></a></li><li><a href=\"Specimen-urin.html\">Generated Summary: id: 11111-15394-75465; id: 22222-bc987-dd888; status: available; <span title=\"Codes: {http://snomed.info/sct 122575003}\">Urine sample</span>; receivedTime: Aug 16, 2020, 6:40:17 PM; Specimen is grossly lipemic</a></li></ul></div>"},"identifier":[{"type":{"coding":[{"system":"http://terminology.hl7.org/CodeSystem/v2-0203","code":"PLAC","display":"Placer Identifier"}]},"system":"urn:oid:1.3.4.5.6.7","value":"123"},{"type":{"coding":[{"system":"http://terminology.hl7.org/CodeSystem/v2-0203","code":"FILL","display":"Filler Identifier"}]},"system":"urn:oid:7.8.9.10.11","value":"456"}],"status":"active","intent":"original-order","category":[{"coding":[{"system":"http://snomed.info/sct","code":"108252007"}],"text":"Laboratory procedure (procedure)"}],"priority":"urgent","subject":{"reference":"Patient/KlebsiellaKeller"},"requester":{"reference":"PractitionerRole/HansHauserKantonsspital"},"reasonCode":[{"coding":[{"system":"http://snomed.info/sct","code":"870441004"}],"text":"Screening for sepsis (procedure)"}],"insurance":[{"reference":"Coverage/HealthInsuranceCard"}],"specimen":[{"reference":"Specimen/blood-bactec-plus"},{"reference":"Specimen/blood"},{"reference":"Specimen/urin"}]}}]}