{"resourceType":"Bundle","id":"1-tvt","meta":{"versionId":"1","lastUpdated":"2019-04-01T20:18:41.341+00:00","profile":["http://fhir.ch/ig/ch-orf/StructureDefinition/ch-orf-document"]},"identifier":{"system":"urn:ietf:rfc:3986","value":"urn:uuid:26d3dff7-ab05-4737-a49c-5eccd33595f8"},"type":"document","timestamp":"2019-04-01T20:18:41.341+00:00","entry":[{"fullUrl":"http://example.com/fhir/Composition/1-tvt","resource":{"resourceType":"Composition","id":"1-tvt","meta":{"versionId":"1","lastUpdated":"2021-02-18T17:04:38.520+00:00","profile":["http://fhir.ch/ig/ch-orf/StructureDefinition/ch-orf-composition"]},"text":{"status":"additional","div":"<div xmlns=\"http://www.w3.org/1999/xhtml\"><div>Laboratory Order</div></div>"},"extension":[{"extension":[{"url":"enterer","valueReference":{"reference":"PractitionerRole/MarcMustermannArztpraxis"}}],"url":"http://fhir.ch/ig/ch-core/StructureDefinition/ch-ext-epr-dataenterer"},{"url":"http://fhir.ch/ig/ch-orf/StructureDefinition/ch-orf-urgentnoficationcontactforthisdocument","valueReference":{"reference":"PractitionerRole/EvaErlenmeyerLaborPipette"}},{"url":"http://fhir.ch/ig/ch-orf/StructureDefinition/ch-orf-urgentnoficationcontactfortheresponsetothisdocument","valueReference":{"reference":"PractitionerRole/MarcMustermannArztpraxis"}},{"url":"http://fhir.ch/ig/ch-orf/StructureDefinition/ch-orf-receiver","valueReference":{"reference":"PractitionerRole/EvaErlenmeyerLaborPipette"}},{"url":"http://fhir.ch/ig/ch-orf/StructureDefinition/ch-orf-copyreceiver","valueReference":{"reference":"Organization/Gruppenpraxis"}},{"url":"http://fhir.ch/ig/ch-orf/StructureDefinition/ch-orf-copyreceiver","valueReference":{"reference":"Patient/HansGuggindieluft"}}],"status":"final","type":{"coding":[{"system":"http://snomed.info/sct","code":"721965002","display":"Laboratory order (record artifact)"}]},"category":[{"coding":[{"system":"http://snomed.info/sct","code":"721963009","display":"Order (record artifact)"}]}],"subject":{"reference":"Patient/HansGuggindieluft"},"date":"2019-03-31T11:46:09+02:00","author":[{"reference":"PractitionerRole/MarcMustermannArztpraxis"}],"title":"Order-Referral-Form 1-tvt","section":[{"title":"Order-Referral-Form 1-tvt","code":{"coding":[{"system":"http://loinc.org","code":"93037-0","display":"Portable medical order form"}]},"text":{"status":"generated","div":"<div xmlns=\"http://www.w3.org/1999/xhtml\">Order-Referral-Form 1-tvt</div>"},"entry":[{"reference":"Questionnaire/1-tvt"},{"reference":"QuestionnaireResponse/1-tvt"},{"reference":"ServiceRequest/1-tvt"}]}]}},{"fullUrl":"http://example.com/fhir/Patient/HansGuggindieluft","resource":{"resourceType":"Patient","id":"HansGuggindieluft","meta":{"profile":["http://fhir.ch/ig/ch-core/StructureDefinition/ch-core-patient"]},"text":{"status":"extensions","div":"<div xmlns=\"http://www.w3.org/1999/xhtml\"><p><b>Generated Narrative</b></p><p><b>Birth Place</b>: Köniz BE Schweiz </p><p><b>identifier</b>: id: 012/08.111114</p><p><b>name</b>: Hans Guggindieluft </p><p><b>gender</b>: male</p><p><b>birthDate</b>: 1981-01-01</p><p><b>maritalStatus</b>: <span title=\"Codes: {http://fhir.ch/ig/ch-core/CodeSystem/ech-11-maritalstatus 2}\">verheiratet</span></p><h3>Communications</h3><table class=\"grid\"><tr><td>-</td><td><b>Language</b></td><td><b>Preferred</b></td></tr><tr><td>*</td><td><span title=\"Codes: {urn:ietf:bcp:47 de-CH}\">Deutsch (Schweiz)</span></td><td>true</td></tr></table></div>"},"extension":[{"url":"http://hl7.org/fhir/StructureDefinition/patient-birthPlace","valueAddress":{"city":"Köniz","state":"BE","country":"Schweiz"}}],"identifier":[{"system":"urn:oid:2.16.756.5.32","value":"012/08.111114"}],"name":[{"family":"Guggindieluft","given":["Hans"]}],"gender":"male","birthDate":"1981-01-01","maritalStatus":{"coding":[{"system":"http://fhir.ch/ig/ch-core/CodeSystem/ech-11-maritalstatus","code":"2","display":"verheiratet"}]},"communication":[{"language":{"coding":[{"system":"urn:ietf:bcp:47","code":"de-CH"}],"text":"Deutsch (Schweiz)"},"preferred":true}]}},{"fullUrl":"http://example.com/fhir/Practitioner/MarcMustermann","resource":{"resourceType":"Practitioner","id":"MarcMustermann","meta":{"profile":["http://fhir.ch/ig/ch-core/StructureDefinition/ch-core-practitioner"]},"text":{"status":"generated","div":"<div xmlns=\"http://www.w3.org/1999/xhtml\"><p><b>Generated Narrative</b></p><p><b>identifier</b>: id: 7601000050702</p><p><b>name</b>: Marc Mustermann </p></div>"},"identifier":[{"system":"urn:oid:2.51.1.3","value":"7601000050702"}],"name":[{"family":"Mustermann","given":["Marc"]}]}},{"fullUrl":"http://example.com/fhir/Organization/Gruppenpraxis","resource":{"resourceType":"Organization","id":"Gruppenpraxis","meta":{"profile":["http://fhir.ch/ig/ch-core/StructureDefinition/ch-core-organization"]},"text":{"status":"generated","div":"<div xmlns=\"http://www.w3.org/1999/xhtml\"><p><b>Generated Narrative</b></p><p><b>name</b>: Gruppenpraxis Olten</p><p><b>address</b>: Gerbergasse 12 Olten 4600 CH </p></div>"},"name":"Gruppenpraxis Olten","address":[{"line":["Gerbergasse 12"],"city":"Olten","postalCode":"4600","country":"CH"}]}},{"fullUrl":"http://example.com/fhir/PractitionerRole/MarcMustermannArztpraxis","resource":{"resourceType":"PractitionerRole","id":"MarcMustermannArztpraxis","meta":{"profile":["http://fhir.ch/ig/ch-core/StructureDefinition/ch-core-practitionerrole"]},"text":{"status":"generated","div":"<div xmlns=\"http://www.w3.org/1999/xhtml\"><p><b>Generated Narrative</b></p><p><b>practitioner</b>: <a href=\"#Practitioner_MarcMustermann\">See above (Practitioner/MarcMustermann)</a></p><p><b>organization</b>: <a href=\"#Organization_Gruppenpraxis\">See above (Organization/Gruppenpraxis)</a></p></div>"},"practitioner":{"reference":"Practitioner/MarcMustermann"},"organization":{"reference":"Organization/Gruppenpraxis"}}},{"fullUrl":"http://example.com/fhir/Questionnaire/1-tvt","resource":{"resourceType":"Composition","id":"1-tvt","meta":{"versionId":"1","lastUpdated":"2021-02-18T17:04:38.520+00:00","profile":["http://fhir.ch/ig/ch-orf/StructureDefinition/ch-orf-composition"]},"text":{"status":"additional","div":"<div xmlns=\"http://www.w3.org/1999/xhtml\"><div>Laboratory Order</div></div>"},"extension":[{"extension":[{"url":"enterer","valueReference":{"reference":"PractitionerRole/MarcMustermannArztpraxis"}}],"url":"http://fhir.ch/ig/ch-core/StructureDefinition/ch-ext-epr-dataenterer"},{"url":"http://fhir.ch/ig/ch-orf/StructureDefinition/ch-orf-urgentnoficationcontactforthisdocument","valueReference":{"reference":"PractitionerRole/EvaErlenmeyerLaborPipette"}},{"url":"http://fhir.ch/ig/ch-orf/StructureDefinition/ch-orf-urgentnoficationcontactfortheresponsetothisdocument","valueReference":{"reference":"PractitionerRole/MarcMustermannArztpraxis"}},{"url":"http://fhir.ch/ig/ch-orf/StructureDefinition/ch-orf-receiver","valueReference":{"reference":"PractitionerRole/EvaErlenmeyerLaborPipette"}},{"url":"http://fhir.ch/ig/ch-orf/StructureDefinition/ch-orf-copyreceiver","valueReference":{"reference":"Organization/Gruppenpraxis"}},{"url":"http://fhir.ch/ig/ch-orf/StructureDefinition/ch-orf-copyreceiver","valueReference":{"reference":"Patient/HansGuggindieluft"}}],"status":"final","type":{"coding":[{"system":"http://snomed.info/sct","code":"721965002","display":"Laboratory order (record artifact)"}]},"category":[{"coding":[{"system":"http://snomed.info/sct","code":"721963009","display":"Order (record artifact)"}]}],"subject":{"reference":"Patient/HansGuggindieluft"},"date":"2019-03-31T11:46:09+02:00","author":[{"reference":"PractitionerRole/MarcMustermannArztpraxis"}],"title":"Order-Referral-Form 1-tvt","section":[{"title":"Order-Referral-Form 1-tvt","code":{"coding":[{"system":"http://loinc.org","code":"93037-0","display":"Portable medical order form"}]},"text":{"status":"generated","div":"<div xmlns=\"http://www.w3.org/1999/xhtml\">Order-Referral-Form 1-tvt</div>"},"entry":[{"reference":"Questionnaire/1-tvt"},{"reference":"QuestionnaireResponse/1-tvt"},{"reference":"ServiceRequest/1-tvt"}]}]}},{"fullUrl":"http://example.com/fhir/QuestionnaireResponse/1-tvt","resource":{"resourceType":"Composition","id":"1-tvt","meta":{"versionId":"1","lastUpdated":"2021-02-18T17:04:38.520+00:00","profile":["http://fhir.ch/ig/ch-orf/StructureDefinition/ch-orf-composition"]},"text":{"status":"additional","div":"<div xmlns=\"http://www.w3.org/1999/xhtml\"><div>Laboratory Order</div></div>"},"extension":[{"extension":[{"url":"enterer","valueReference":{"reference":"PractitionerRole/MarcMustermannArztpraxis"}}],"url":"http://fhir.ch/ig/ch-core/StructureDefinition/ch-ext-epr-dataenterer"},{"url":"http://fhir.ch/ig/ch-orf/StructureDefinition/ch-orf-urgentnoficationcontactforthisdocument","valueReference":{"reference":"PractitionerRole/EvaErlenmeyerLaborPipette"}},{"url":"http://fhir.ch/ig/ch-orf/StructureDefinition/ch-orf-urgentnoficationcontactfortheresponsetothisdocument","valueReference":{"reference":"PractitionerRole/MarcMustermannArztpraxis"}},{"url":"http://fhir.ch/ig/ch-orf/StructureDefinition/ch-orf-receiver","valueReference":{"reference":"PractitionerRole/EvaErlenmeyerLaborPipette"}},{"url":"http://fhir.ch/ig/ch-orf/StructureDefinition/ch-orf-copyreceiver","valueReference":{"reference":"Organization/Gruppenpraxis"}},{"url":"http://fhir.ch/ig/ch-orf/StructureDefinition/ch-orf-copyreceiver","valueReference":{"reference":"Patient/HansGuggindieluft"}}],"status":"final","type":{"coding":[{"system":"http://snomed.info/sct","code":"721965002","display":"Laboratory order (record artifact)"}]},"category":[{"coding":[{"system":"http://snomed.info/sct","code":"721963009","display":"Order (record artifact)"}]}],"subject":{"reference":"Patient/HansGuggindieluft"},"date":"2019-03-31T11:46:09+02:00","author":[{"reference":"PractitionerRole/MarcMustermannArztpraxis"}],"title":"Order-Referral-Form 1-tvt","section":[{"title":"Order-Referral-Form 1-tvt","code":{"coding":[{"system":"http://loinc.org","code":"93037-0","display":"Portable medical order form"}]},"text":{"status":"generated","div":"<div xmlns=\"http://www.w3.org/1999/xhtml\">Order-Referral-Form 1-tvt</div>"},"entry":[{"reference":"Questionnaire/1-tvt"},{"reference":"QuestionnaireResponse/1-tvt"},{"reference":"ServiceRequest/1-tvt"}]}]}},{"fullUrl":"http://example.com/fhir/ServiceRequest/1-tvt","resource":{"resourceType":"ServiceRequest","id":"1-tvt","meta":{"profile":["http://fhir.ch/ig/ch-orf/StructureDefinition/ch-orf-servicerequest"]},"text":{"status":"generated","div":"<div xmlns=\"http://www.w3.org/1999/xhtml\"><p><b>Generated Narrative</b></p><p><b>identifier</b>: Placer Identifier: 123, Filler Identifier: 456</p><p><b>status</b>: active</p><p><b>intent</b>: original-order</p><p><b>category</b>: <span title=\"Codes: {http://snomed.info/sct 108252007}\">Laboratory procedure (procedure)</span></p><p><b>priority</b>: urgent</p><p><b>subject</b>: <a href=\"#Patient_HansGuggindieluft\">See above (Patient/HansGuggindieluft)</a></p><p><b>requester</b>: <a href=\"#PractitionerRole_MarcMustermannArztpraxis\">See above (PractitionerRole/MarcMustermannArztpraxis)</a></p><p><b>reasonCode</b>: <span title=\"Codes: {http://snomed.info/sct 404223003}\">Deep venous thrombosis of lower extremity</span></p><p><b>insurance</b>: <a href=\"Coverage-HealthInsuranceCard.html\">Generated Summary: id: A123456780; status: active; <span title=\"Codes: {http://terminology.hl7.org/CodeSystem/v3-ActCode EHCPOL}\">extended healthcare</span>; period: ?ngen-2? --&gt; 2012-03-17</a></p><p><b>specimen</b>: </p><ul><li><a href=\"Specimen-serum.html\">Serum specimen. Generated Summary: id: 48736-12345-75465; id: 4e88a-12345-dd888; status: available; <span title=\"Codes: {http://snomed.info/sct 119364003}\">Serum specimen (specimen)</span></a></li><li><a href=\"Specimen-blood.html\">Generated Summary: status: available; <span title=\"Codes: {http://snomed.info/sct 119297000}\">Blood sample</span></a></li></ul></div>"},"identifier":[{"type":{"coding":[{"system":"http://terminology.hl7.org/CodeSystem/v2-0203","code":"PLAC","display":"Placer Identifier"}]},"system":"urn:oid:1.3.4.5.6.7","value":"123"},{"type":{"coding":[{"system":"http://terminology.hl7.org/CodeSystem/v2-0203","code":"FILL","display":"Filler Identifier"}]},"system":"urn:oid:7.8.9.10.11","value":"456"}],"status":"active","intent":"original-order","category":[{"coding":[{"system":"http://snomed.info/sct","code":"108252007"}],"text":"Laboratory procedure (procedure)"}],"priority":"urgent","subject":{"reference":"Patient/HansGuggindieluft"},"requester":{"reference":"PractitionerRole/MarcMustermannArztpraxis"},"reasonCode":[{"coding":[{"system":"http://snomed.info/sct","code":"404223003"}],"text":"Deep venous thrombosis of lower extremity"}],"insurance":[{"reference":"Coverage/HealthInsuranceCard"}],"specimen":[{"reference":"Specimen/serum","display":"Serum specimen"},{"reference":"Specimen/blood"}]}}]}