{"resourceType":"Bundle","id":"3-gyn","meta":{"versionId":"1","lastUpdated":"2019-04-01T20:18:41.341+00:00","profile":["http://fhir.ch/ig/ch-orf/StructureDefinition/ch-orf-document"]},"identifier":{"system":"urn:ietf:rfc:3986","value":"urn:uuid:26d3dff7-ab05-4737-a49c-5eccd33595f8"},"type":"document","timestamp":"2019-04-01T20:18:41.341+00:00","entry":[{"fullUrl":"http://example.com/fhir/Composition/3-gyn","resource":{"resourceType":"Composition","id":"3-gyn","meta":{"versionId":"1","lastUpdated":"2021-02-18T17:04:38.520+00:00","profile":["http://fhir.ch/ig/ch-orf/StructureDefinition/ch-orf-composition"]},"text":{"status":"additional","div":"<div xmlns=\"http://www.w3.org/1999/xhtml\"><div>Laboratory Order</div></div>"},"extension":[{"extension":[{"url":"enterer","valueReference":{"reference":"PractitionerRole/PeterPapGruppenpraxis"}}],"url":"http://fhir.ch/ig/ch-core/StructureDefinition/ch-ext-epr-dataenterer"},{"url":"http://fhir.ch/ig/ch-orf/StructureDefinition/ch-orf-receiver","valueReference":{"reference":"PractitionerRole/EvaErlenmeyerLaborPipette"}},{"url":"http://fhir.ch/ig/ch-orf/StructureDefinition/ch-orf-copyreceiver","valueReference":{"reference":"Organization/Gruppenpraxis"}}],"status":"final","type":{"coding":[{"system":"http://snomed.info/sct","code":"721965002","display":"Laboratory order (record artifact)"}]},"category":[{"coding":[{"system":"http://snomed.info/sct","code":"721963009","display":"Order (record artifact)"}]}],"subject":{"reference":"Patient/MarinaRubella"},"date":"2020-03-31T11:46:09+02:00","author":[{"reference":"PractitionerRole/PeterPapGruppenpraxis"}],"title":"Referral 3-gyn","section":[{"title":"Order-Referral-Form 3-gyn","code":{"coding":[{"system":"http://loinc.org","code":"93037-0","display":"Portable medical order form"}]},"text":{"status":"generated","div":"<div xmlns=\"http://www.w3.org/1999/xhtml\">Order-Referral-Form 3-gyn</div>"},"entry":[{"reference":"Questionnaire/3-gyn"},{"reference":"QuestionnaireResponse/3-gyn"},{"reference":"ServiceRequest/3-gyn"}]}]}},{"fullUrl":"http://example.com/fhir/Patient/MarinaRubella","resource":{"resourceType":"Patient","id":"MarinaRubella","meta":{"profile":["http://fhir.ch/ig/ch-core/StructureDefinition/ch-core-patient"]},"text":{"status":"extensions","div":"<div xmlns=\"http://www.w3.org/1999/xhtml\"><p><b>Generated Narrative</b></p><p><b>Birth Place</b>: Mendrisio Schweiz </p><p><b>Place of origin according to eCH-0011</b>: Airolo TI </p><p><b>religion</b>: <span title=\"Codes: {http://terminology.hl7.org/CodeSystem/v3-ReligiousAffiliation 1077}\">Protestant</span></p><p><b>identifier</b>: Medical record number: 012/08.111106</p><p><b>name</b>: Marina Rubella (OFFICIAL), Meier (MAIDEN)</p><p><b>gender</b>: female</p><p><b>birthDate</b>: 1992-08-08</p><p><b>maritalStatus</b>: <span title=\"Codes: {http://fhir.ch/ig/ch-core/CodeSystem/ech-11-maritalstatus 2}\">verheiratet</span></p><h3>Communications</h3><table class=\"grid\"><tr><td>-</td><td><b>Language</b></td><td><b>Preferred</b></td></tr><tr><td>*</td><td><span title=\"Codes: {urn:ietf:bcp:47 it-CH}\">Italienisch (Schweiz)</span></td><td>true</td></tr></table></div>"},"extension":[{"url":"http://hl7.org/fhir/StructureDefinition/patient-birthPlace","valueAddress":{"city":"Mendrisio","country":"Schweiz"}},{"url":"http://fhir.ch/ig/ch-core/StructureDefinition/ch-core-patient-ech-11-placeoforigin","valueAddress":{"city":"Airolo","state":"TI"}},{"url":"http://hl7.org/fhir/StructureDefinition/patient-religion","valueCodeableConcept":{"coding":[{"system":"http://terminology.hl7.org/CodeSystem/v3-ReligiousAffiliation","code":"1077","display":"Protestant"}]}}],"identifier":[{"type":{"coding":[{"system":"http://terminology.hl7.org/CodeSystem/v2-0203","code":"MR"}]},"system":"urn:oid:2.16.756.5.30.999999.1","value":"012/08.111106"}],"name":[{"use":"official","family":"Rubella","_family":{"extension":[{"url":"http://fhir.ch/ig/ch-core/StructureDefinition/ch-ext-ech-11-name","valueCode":"officialName"}]},"given":["Marina"],"_given":[{"extension":[{"url":"http://fhir.ch/ig/ch-core/StructureDefinition/ch-ext-ech-11-firstname","valueCode":"officialFirstName"}]}]},{"use":"maiden","family":"Meier","_family":{"extension":[{"url":"http://fhir.ch/ig/ch-core/StructureDefinition/ch-ext-ech-11-name","valueCode":"originalName"}]}}],"gender":"female","birthDate":"1992-08-08","maritalStatus":{"coding":[{"system":"http://fhir.ch/ig/ch-core/CodeSystem/ech-11-maritalstatus","code":"2","display":"verheiratet"}]},"communication":[{"language":{"coding":[{"system":"urn:ietf:bcp:47","code":"it-CH"}],"text":"Italienisch (Schweiz)"},"preferred":true}]}},{"fullUrl":"http://example.com/fhir/Practitioner/PeterPap","resource":{"resourceType":"Practitioner","id":"MarcApgar","meta":{"profile":["http://fhir.ch/ig/ch-core/StructureDefinition/ch-core-practitioner"]},"text":{"status":"generated","div":"<div xmlns=\"http://www.w3.org/1999/xhtml\"><p><b>Generated Narrative</b></p><p><b>identifier</b>: id: 7601000050717</p><p><b>name</b>: Marc Agpar </p><p><b>telecom</b>: <a href=\"mailto:marc.apgar@spitalseeblick.ch\">marc.apgar@spitalseeblick.ch</a></p></div>"},"identifier":[{"system":"urn:oid:2.51.1.3","value":"7601000050717"}],"name":[{"family":"Agpar","given":["Marc"]}],"telecom":[{"system":"email","value":"marc.apgar@spitalseeblick.ch","use":"work"}]}},{"fullUrl":"http://example.com/fhir/Organization/Gruppenpraxis","resource":{"resourceType":"Organization","id":"Gruppenpraxis","meta":{"profile":["http://fhir.ch/ig/ch-core/StructureDefinition/ch-core-organization"]},"text":{"status":"generated","div":"<div xmlns=\"http://www.w3.org/1999/xhtml\"><p><b>Generated Narrative</b></p><p><b>name</b>: Gruppenpraxis Olten</p><p><b>address</b>: Gerbergasse 12 Olten 4600 CH </p></div>"},"name":"Gruppenpraxis Olten","address":[{"line":["Gerbergasse 12"],"city":"Olten","postalCode":"4600","country":"CH"}]}},{"fullUrl":"http://example.com/fhir/PractitionerRole/PeterPapGruppenpraxis","resource":{"resourceType":"PractitionerRole","id":"PeterPapGruppenpraxis","meta":{"profile":["http://fhir.ch/ig/ch-core/StructureDefinition/ch-core-practitionerrole"]},"text":{"status":"generated","div":"<div xmlns=\"http://www.w3.org/1999/xhtml\"><p><b>Generated Narrative</b></p><p><b>practitioner</b>: <a href=\"Practitioner-PeterPap.html\">Generated Summary: id: 7601000050703; Peter Pap (OFFICIAL); Phone: 032 333 22 40, peter.pap@gruppenpraxis.ch</a></p><p><b>organization</b>: <a href=\"#Organization_Gruppenpraxis\">See above (Organization/Gruppenpraxis)</a></p></div>"},"practitioner":{"reference":"Practitioner/PeterPap"},"organization":{"reference":"Organization/Gruppenpraxis"}}},{"fullUrl":"http://example.com/fhir/Questionnaire/3-gyn","resource":{"resourceType":"Composition","id":"3-gyn","meta":{"versionId":"1","lastUpdated":"2021-02-18T17:04:38.520+00:00","profile":["http://fhir.ch/ig/ch-orf/StructureDefinition/ch-orf-composition"]},"text":{"status":"additional","div":"<div xmlns=\"http://www.w3.org/1999/xhtml\"><div>Laboratory Order</div></div>"},"extension":[{"extension":[{"url":"enterer","valueReference":{"reference":"PractitionerRole/PeterPapGruppenpraxis"}}],"url":"http://fhir.ch/ig/ch-core/StructureDefinition/ch-ext-epr-dataenterer"},{"url":"http://fhir.ch/ig/ch-orf/StructureDefinition/ch-orf-receiver","valueReference":{"reference":"PractitionerRole/EvaErlenmeyerLaborPipette"}},{"url":"http://fhir.ch/ig/ch-orf/StructureDefinition/ch-orf-copyreceiver","valueReference":{"reference":"Organization/Gruppenpraxis"}}],"status":"final","type":{"coding":[{"system":"http://snomed.info/sct","code":"721965002","display":"Laboratory order (record artifact)"}]},"category":[{"coding":[{"system":"http://snomed.info/sct","code":"721963009","display":"Order (record artifact)"}]}],"subject":{"reference":"Patient/MarinaRubella"},"date":"2020-03-31T11:46:09+02:00","author":[{"reference":"PractitionerRole/PeterPapGruppenpraxis"}],"title":"Referral 3-gyn","section":[{"title":"Order-Referral-Form 3-gyn","code":{"coding":[{"system":"http://loinc.org","code":"93037-0","display":"Portable medical order form"}]},"text":{"status":"generated","div":"<div xmlns=\"http://www.w3.org/1999/xhtml\">Order-Referral-Form 3-gyn</div>"},"entry":[{"reference":"Questionnaire/3-gyn"},{"reference":"QuestionnaireResponse/3-gyn"},{"reference":"ServiceRequest/3-gyn"}]}]}},{"fullUrl":"http://example.com/fhir/QuestionnaireResponse/3-gyn","resource":{"resourceType":"Composition","id":"3-gyn","meta":{"versionId":"1","lastUpdated":"2021-02-18T17:04:38.520+00:00","profile":["http://fhir.ch/ig/ch-orf/StructureDefinition/ch-orf-composition"]},"text":{"status":"additional","div":"<div xmlns=\"http://www.w3.org/1999/xhtml\"><div>Laboratory Order</div></div>"},"extension":[{"extension":[{"url":"enterer","valueReference":{"reference":"PractitionerRole/PeterPapGruppenpraxis"}}],"url":"http://fhir.ch/ig/ch-core/StructureDefinition/ch-ext-epr-dataenterer"},{"url":"http://fhir.ch/ig/ch-orf/StructureDefinition/ch-orf-receiver","valueReference":{"reference":"PractitionerRole/EvaErlenmeyerLaborPipette"}},{"url":"http://fhir.ch/ig/ch-orf/StructureDefinition/ch-orf-copyreceiver","valueReference":{"reference":"Organization/Gruppenpraxis"}}],"status":"final","type":{"coding":[{"system":"http://snomed.info/sct","code":"721965002","display":"Laboratory order (record artifact)"}]},"category":[{"coding":[{"system":"http://snomed.info/sct","code":"721963009","display":"Order (record artifact)"}]}],"subject":{"reference":"Patient/MarinaRubella"},"date":"2020-03-31T11:46:09+02:00","author":[{"reference":"PractitionerRole/PeterPapGruppenpraxis"}],"title":"Referral 3-gyn","section":[{"title":"Order-Referral-Form 3-gyn","code":{"coding":[{"system":"http://loinc.org","code":"93037-0","display":"Portable medical order form"}]},"text":{"status":"generated","div":"<div xmlns=\"http://www.w3.org/1999/xhtml\">Order-Referral-Form 3-gyn</div>"},"entry":[{"reference":"Questionnaire/3-gyn"},{"reference":"QuestionnaireResponse/3-gyn"},{"reference":"ServiceRequest/3-gyn"}]}]}},{"fullUrl":"http://example.com/fhir/ServiceRequest/3-gyn","resource":{"resourceType":"ServiceRequest","id":"3-gyn","meta":{"profile":["http://fhir.ch/ig/ch-orf/StructureDefinition/ch-orf-servicerequest"]},"text":{"status":"generated","div":"<div xmlns=\"http://www.w3.org/1999/xhtml\"><p><b>Generated Narrative</b></p><p><b>identifier</b>: Placer Identifier: 123, Filler Identifier: 456</p><p><b>status</b>: active</p><p><b>intent</b>: original-order</p><p><b>category</b>: <span title=\"Codes: {http://snomed.info/sct 108252007}\">Laboratory procedure (procedure)</span></p><p><b>priority</b>: routine</p><p><b>subject</b>: <a href=\"#Patient_MarinaRubella\">See above (Patient/MarinaRubella)</a></p><p><b>requester</b>: <a href=\"#PractitionerRole_PeterPapGruppenpraxis\">See above (PractitionerRole/PeterPapGruppenpraxis)</a></p><p><b>reasonCode</b>: <span title=\"Codes: {http://snomed.info/sct 702601001}\">Routine gynecologic examination (procedure)</span></p><p><b>insurance</b>: <a href=\"Coverage-HealthInsuranceCard.html\">Generated Summary: id: A123456780; status: active; <span title=\"Codes: {http://terminology.hl7.org/CodeSystem/v3-ActCode EHCPOL}\">extended healthcare</span>; period: ?ngen-2? --&gt; 2012-03-17</a></p><p><b>specimen</b>: </p><ul><li><a href=\"Specimen-cervix-swab.html\">Generated Summary: id: 48736-12345-12345; id: 4e88a-12345-aa222; status: available; <span title=\"Codes: {http://snomed.info/sct 430387006}\">Combined specimen of cytologic material from endocervix, ectocervix, and vaginal fornix (specimen)</span></a></li><li><a href=\"Specimen-blood.html\">Generated Summary: status: available; <span title=\"Codes: {http://snomed.info/sct 119297000}\">Blood sample</span></a></li><li><a href=\"Specimen-serum.html\">Generated Summary: id: 48736-12345-75465; id: 4e88a-12345-dd888; status: available; <span title=\"Codes: {http://snomed.info/sct 119364003}\">Serum specimen (specimen)</span></a></li><li><a href=\"Specimen-urin.html\">Generated Summary: id: 11111-15394-75465; id: 22222-bc987-dd888; status: available; <span title=\"Codes: {http://snomed.info/sct 122575003}\">Urine sample</span>; receivedTime: Aug 16, 2020, 6:40:17 PM; Specimen is grossly lipemic</a></li></ul></div>"},"identifier":[{"type":{"coding":[{"system":"http://terminology.hl7.org/CodeSystem/v2-0203","code":"PLAC","display":"Placer Identifier"}]},"system":"urn:oid:1.3.4.5.6.7","value":"123"},{"type":{"coding":[{"system":"http://terminology.hl7.org/CodeSystem/v2-0203","code":"FILL","display":"Filler Identifier"}]},"system":"urn:oid:7.8.9.10.11","value":"456"}],"status":"active","intent":"original-order","category":[{"coding":[{"system":"http://snomed.info/sct","code":"108252007"}],"text":"Laboratory procedure (procedure)"}],"priority":"routine","subject":{"reference":"Patient/MarinaRubella"},"requester":{"reference":"PractitionerRole/PeterPapGruppenpraxis"},"reasonCode":[{"coding":[{"system":"http://snomed.info/sct","code":"702601001"}],"text":"Routine gynecologic examination (procedure)"}],"insurance":[{"reference":"Coverage/HealthInsuranceCard"}],"specimen":[{"reference":"Specimen/cervix-swab"},{"reference":"Specimen/blood"},{"reference":"Specimen/serum"},{"reference":"Specimen/urin"}]}}]}