{
  "resourceType": "Bundle",
  "id": "4-sepsis",
  "meta": {
    "profile": [
      "http://fhir.ch/ig/ch-orf/StructureDefinition/ch-orf-document"
    ],
    "versionId": "1",
    "lastUpdated": "2019-04-01T20:18:41.341+00:00"
  },
  "type": "document",
  "identifier": {
    "system": "urn:ietf:rfc:3986",
    "value": "urn:uuid:26d3dff7-ab05-4737-a49c-5eccd33595f8"
  },
  "timestamp": "2019-04-01T20:18:41.341+00:00",
  "entry": [
    {
      "fullUrl": "http://example.com/fhir/Composition/referral-min",
      "resource": {
        "resourceType": "Composition",
        "id": "4-sepsis",
        "meta": {
          "profile": [
            "http://fhir.ch/ig/ch-orf/StructureDefinition/ch-orf-composition"
          ],
          "versionId": "1",
          "lastUpdated": "2021-02-18T17:04:38.520+00:00"
        },
        "section": [
          {
            "code": {
              "coding": [
                {
                  "system": "http://loinc.org",
                  "code": "93037-0",
                  "display": "Portable medical order form"
                }
              ]
            },
            "title": "Order-Referral-Form 4-sepsis",
            "text": {
              "status": "generated",
              "div": "<div xmlns=\"http://www.w3.org/1999/xhtml\">Order-Referral-Form 4-sepsis</div>"
            },
            "entry": [
              {
                "reference": "Questionnaire/4-sepsis"
              },
              {
                "reference": "QuestionnaireResponse/4-sepsis"
              },
              {
                "reference": "ServiceRequest/4-sepsis"
              }
            ]
          }
        ],
        "extension": [
          {
            "extension": [
              {
                "url": "enterer",
                "valueReference": {
                  "reference": "PractitionerRole/HansHauserKantonsspital"
                }
              }
            ],
            "url": "http://fhir.ch/ig/ch-core/StructureDefinition/ch-ext-epr-dataenterer"
          },
          {
            "url": "http://fhir.ch/ig/ch-orf/StructureDefinition/ch-orf-urgentnoficationcontactforthisdocument",
            "valueReference": {
              "reference": "PractitionerRole/EvaErlenmeyerLaborPipette"
            }
          },
          {
            "url": "http://fhir.ch/ig/ch-orf/StructureDefinition/ch-orf-urgentnoficationcontactfortheresponsetothisdocument",
            "valueReference": {
              "reference": "PractitionerRole/HansHauserKantonsspital"
            }
          },
          {
            "url": "http://fhir.ch/ig/ch-orf/StructureDefinition/ch-orf-receiver",
            "valueReference": {
              "reference": "PractitionerRole/EvaErlenmeyerLaborPipette"
            }
          },
          {
            "url": "http://fhir.ch/ig/ch-orf/StructureDefinition/ch-orf-copyreceiver",
            "valueReference": {
              "reference": "Organization/Gruppenpraxis"
            }
          },
          {
            "url": "http://fhir.ch/ig/ch-orf/StructureDefinition/ch-orf-copyreceiver",
            "valueReference": {
              "reference": "Patient/KlebsiellaKeller"
            }
          }
        ],
        "status": "final",
        "type": {
          "coding": [
            {
              "code": "721965002",
              "system": "http://snomed.info/sct",
              "display": "Laboratory order (record artifact)"
            }
          ]
        },
        "category": [
          {
            "coding": [
              {
                "code": "721963009",
                "system": "http://snomed.info/sct",
                "display": "Order (record artifact)"
              }
            ]
          }
        ],
        "subject": {
          "reference": "Patient/KlebsiellaKeller"
        },
        "date": "2019-03-31T11:46:09+02:00",
        "author": [
          {
            "reference": "PractitionerRole/HansHauserKantonsspital"
          }
        ],
        "title": "Referral 4-sepsis"
      }
    },
    {
      "fullUrl": "http://example.com/fhir/Patient/KlebsiellaKeller",
      "resource": {
        "resourceType": "Patient",
        "id": "KlebsiellaKeller",
        "meta": {
          "profile": [
            "http://fhir.ch/ig/ch-core/StructureDefinition/ch-core-patient"
          ]
        },
        "extension": [
          {
            "url": "http://hl7.org/fhir/StructureDefinition/patient-birthPlace",
            "valueAddress": {
              "city": "Aarau",
              "country": "Schweiz"
            }
          },
          {
            "url": "http://fhir.ch/ig/ch-core/StructureDefinition/ch-core-patient-ech-11-placeoforigin",
            "valueAddress": {
              "city": "Lenzburg",
              "state": "AG"
            }
          },
          {
            "url": "http://hl7.org/fhir/StructureDefinition/patient-religion",
            "valueCodeableConcept": {
              "coding": [
                {
                  "code": "1025",
                  "system": "http://terminology.hl7.org/CodeSystem/v3-ReligiousAffiliation",
                  "display": "Jehovah's Witnesses"
                }
              ]
            }
          }
        ],
        "identifier": [
          {
            "type": {
              "coding": [
                {
                  "code": "MR",
                  "system": "http://terminology.hl7.org/CodeSystem/v2-0203"
                }
              ]
            },
            "system": "urn:oid:2.16.756.5.30.999999.1",
            "value": "012/08.111105"
          }
        ],
        "name": [
          {
            "family": "Klebsiella",
            "given": [
              "Keller"
            ]
          }
        ],
        "gender": "female",
        "birthDate": "1975-12-12",
        "maritalStatus": {
          "coding": [
            {
              "code": "2",
              "system": "http://fhir.ch/ig/ch-core/CodeSystem/ech-11-maritalstatus",
              "display": "verheiratet"
            }
          ]
        },
        "communication": [
          {
            "language": {
              "coding": [
                {
                  "code": "de-CH",
                  "system": "urn:ietf:bcp:47"
                }
              ],
              "text": "Deutsch (Schweiz)"
            },
            "preferred": true
          }
        ]
      }
    },
    {
      "fullUrl": "http://example.com/fhir/Practitioner/HansHauser",
      "resource": {
        "resourceType": "Practitioner",
        "id": "HansHauser",
        "meta": {
          "profile": [
            "http://fhir.ch/ig/ch-core/StructureDefinition/ch-core-practitioner"
          ]
        },
        "identifier": [
          {
            "system": "urn:oid:2.51.1.3",
            "value": "7601000050701"
          }
        ],
        "name": [
          {
            "family": "Hauser",
            "given": [
              "Hans"
            ]
          }
        ]
      }
    },
    {
      "fullUrl": "http://example.com/fhir/Organization/Kantonsspital",
      "resource": {
        "resourceType": "Organization",
        "id": "Kantonsspital",
        "meta": {
          "profile": [
            "http://fhir.ch/ig/ch-core/StructureDefinition/ch-core-organization-epr"
          ]
        },
        "identifier": [
          {
            "system": "urn:oid:2.51.1.3",
            "value": "76010002342000"
          }
        ],
        "name": "Kantonsspital Zug",
        "telecom": [
          {
            "system": "phone",
            "value": "+41778845566",
            "use": "work"
          },
          {
            "system": "email",
            "value": "info@kantonsspital-zug.ch",
            "use": "work"
          },
          {
            "system": "url",
            "value": "http://www.kanstonsspital-zug.ch",
            "use": "work"
          }
        ],
        "address": [
          {
            "line": [
              "Seepromende 77"
            ],
            "city": "Arth",
            "postalCode": "6415",
            "country": "CH"
          }
        ]
      }
    },
    {
      "fullUrl": "http://example.com/fhir/PractitionerRole/HansHauserKantonsspital",
      "resource": {
        "resourceType": "PractitionerRole",
        "id": "HansHauserKantonsspital",
        "meta": {
          "profile": [
            "http://fhir.ch/ig/ch-core/StructureDefinition/ch-core-practitionerrole"
          ]
        },
        "practitioner": {
          "reference": "Practitioner/HansHauser"
        },
        "organization": {
          "reference": "Organization/Kantonsspital"
        }
      }
    },
    {
      "fullUrl": "http://example.com/fhir/Questionnaire/4-sepsis",
      "resource": {
        "resourceType": "Composition",
        "id": "4-sepsis",
        "meta": {
          "profile": [
            "http://fhir.ch/ig/ch-orf/StructureDefinition/ch-orf-composition"
          ],
          "versionId": "1",
          "lastUpdated": "2021-02-18T17:04:38.520+00:00"
        },
        "section": [
          {
            "code": {
              "coding": [
                {
                  "system": "http://loinc.org",
                  "code": "93037-0",
                  "display": "Portable medical order form"
                }
              ]
            },
            "title": "Order-Referral-Form 4-sepsis",
            "text": {
              "status": "generated",
              "div": "<div xmlns=\"http://www.w3.org/1999/xhtml\">Order-Referral-Form 4-sepsis</div>"
            },
            "entry": [
              {
                "reference": "Questionnaire/4-sepsis"
              },
              {
                "reference": "QuestionnaireResponse/4-sepsis"
              },
              {
                "reference": "ServiceRequest/4-sepsis"
              }
            ]
          }
        ],
        "extension": [
          {
            "extension": [
              {
                "url": "enterer",
                "valueReference": {
                  "reference": "PractitionerRole/HansHauserKantonsspital"
                }
              }
            ],
            "url": "http://fhir.ch/ig/ch-core/StructureDefinition/ch-ext-epr-dataenterer"
          },
          {
            "url": "http://fhir.ch/ig/ch-orf/StructureDefinition/ch-orf-urgentnoficationcontactforthisdocument",
            "valueReference": {
              "reference": "PractitionerRole/EvaErlenmeyerLaborPipette"
            }
          },
          {
            "url": "http://fhir.ch/ig/ch-orf/StructureDefinition/ch-orf-urgentnoficationcontactfortheresponsetothisdocument",
            "valueReference": {
              "reference": "PractitionerRole/HansHauserKantonsspital"
            }
          },
          {
            "url": "http://fhir.ch/ig/ch-orf/StructureDefinition/ch-orf-receiver",
            "valueReference": {
              "reference": "PractitionerRole/EvaErlenmeyerLaborPipette"
            }
          },
          {
            "url": "http://fhir.ch/ig/ch-orf/StructureDefinition/ch-orf-copyreceiver",
            "valueReference": {
              "reference": "Organization/Gruppenpraxis"
            }
          },
          {
            "url": "http://fhir.ch/ig/ch-orf/StructureDefinition/ch-orf-copyreceiver",
            "valueReference": {
              "reference": "Patient/KlebsiellaKeller"
            }
          }
        ],
        "status": "final",
        "type": {
          "coding": [
            {
              "code": "721965002",
              "system": "http://snomed.info/sct",
              "display": "Laboratory order (record artifact)"
            }
          ]
        },
        "category": [
          {
            "coding": [
              {
                "code": "721963009",
                "system": "http://snomed.info/sct",
                "display": "Order (record artifact)"
              }
            ]
          }
        ],
        "subject": {
          "reference": "Patient/KlebsiellaKeller"
        },
        "date": "2019-03-31T11:46:09+02:00",
        "author": [
          {
            "reference": "PractitionerRole/HansHauserKantonsspital"
          }
        ],
        "title": "Referral 4-sepsis"
      }
    },
    {
      "fullUrl": "http://example.com/fhir/QuestionnaireResponse/4-sepsis",
      "resource": {
        "resourceType": "Composition",
        "id": "4-sepsis",
        "meta": {
          "profile": [
            "http://fhir.ch/ig/ch-orf/StructureDefinition/ch-orf-composition"
          ],
          "versionId": "1",
          "lastUpdated": "2021-02-18T17:04:38.520+00:00"
        },
        "section": [
          {
            "code": {
              "coding": [
                {
                  "system": "http://loinc.org",
                  "code": "93037-0",
                  "display": "Portable medical order form"
                }
              ]
            },
            "title": "Order-Referral-Form 4-sepsis",
            "text": {
              "status": "generated",
              "div": "<div xmlns=\"http://www.w3.org/1999/xhtml\">Order-Referral-Form 4-sepsis</div>"
            },
            "entry": [
              {
                "reference": "Questionnaire/4-sepsis"
              },
              {
                "reference": "QuestionnaireResponse/4-sepsis"
              },
              {
                "reference": "ServiceRequest/4-sepsis"
              }
            ]
          }
        ],
        "extension": [
          {
            "extension": [
              {
                "url": "enterer",
                "valueReference": {
                  "reference": "PractitionerRole/HansHauserKantonsspital"
                }
              }
            ],
            "url": "http://fhir.ch/ig/ch-core/StructureDefinition/ch-ext-epr-dataenterer"
          },
          {
            "url": "http://fhir.ch/ig/ch-orf/StructureDefinition/ch-orf-urgentnoficationcontactforthisdocument",
            "valueReference": {
              "reference": "PractitionerRole/EvaErlenmeyerLaborPipette"
            }
          },
          {
            "url": "http://fhir.ch/ig/ch-orf/StructureDefinition/ch-orf-urgentnoficationcontactfortheresponsetothisdocument",
            "valueReference": {
              "reference": "PractitionerRole/HansHauserKantonsspital"
            }
          },
          {
            "url": "http://fhir.ch/ig/ch-orf/StructureDefinition/ch-orf-receiver",
            "valueReference": {
              "reference": "PractitionerRole/EvaErlenmeyerLaborPipette"
            }
          },
          {
            "url": "http://fhir.ch/ig/ch-orf/StructureDefinition/ch-orf-copyreceiver",
            "valueReference": {
              "reference": "Organization/Gruppenpraxis"
            }
          },
          {
            "url": "http://fhir.ch/ig/ch-orf/StructureDefinition/ch-orf-copyreceiver",
            "valueReference": {
              "reference": "Patient/KlebsiellaKeller"
            }
          }
        ],
        "status": "final",
        "type": {
          "coding": [
            {
              "code": "721965002",
              "system": "http://snomed.info/sct",
              "display": "Laboratory order (record artifact)"
            }
          ]
        },
        "category": [
          {
            "coding": [
              {
                "code": "721963009",
                "system": "http://snomed.info/sct",
                "display": "Order (record artifact)"
              }
            ]
          }
        ],
        "subject": {
          "reference": "Patient/KlebsiellaKeller"
        },
        "date": "2019-03-31T11:46:09+02:00",
        "author": [
          {
            "reference": "PractitionerRole/HansHauserKantonsspital"
          }
        ],
        "title": "Referral 4-sepsis"
      }
    },
    {
      "fullUrl": "http://example.com/fhir/ServiceRequest/4-sepsis",
      "resource": {
        "resourceType": "ServiceRequest",
        "id": "4-sepsis",
        "meta": {
          "profile": [
            "http://fhir.ch/ig/ch-orf/StructureDefinition/ch-orf-servicerequest"
          ]
        },
        "identifier": [
          {
            "type": {
              "coding": [
                {
                  "system": "http://terminology.hl7.org/CodeSystem/v2-0203",
                  "code": "PLAC",
                  "display": "Placer Identifier"
                }
              ]
            },
            "system": "urn:oid:1.3.4.5.6.7",
            "value": "123"
          },
          {
            "type": {
              "coding": [
                {
                  "code": "FILL",
                  "system": "http://terminology.hl7.org/CodeSystem/v2-0203",
                  "display": "Filler Identifier"
                }
              ]
            },
            "system": "urn:oid:7.8.9.10.11",
            "value": "456"
          }
        ],
        "status": "active",
        "intent": "original-order",
        "category": [
          {
            "coding": [
              {
                "code": "108252007",
                "system": "http://snomed.info/sct"
              }
            ],
            "text": "Laboratory procedure (procedure)"
          }
        ],
        "priority": "urgent",
        "subject": {
          "reference": "Patient/KlebsiellaKeller"
        },
        "requester": {
          "reference": "PractitionerRole/HansHauserKantonsspital"
        },
        "reasonCode": [
          {
            "coding": [
              {
                "code": "870441004",
                "system": "http://snomed.info/sct"
              }
            ],
            "text": "Screening for sepsis (procedure)"
          }
        ],
        "insurance": [
          {
            "reference": "Coverage/HealthInsuranceCard"
          }
        ],
        "specimen": [
          {
            "reference": "Specimen/blood-bactec-plus"
          },
          {
            "reference": "Specimen/blood"
          },
          {
            "reference": "Specimen/urin"
          }
        ]
      }
    }
  ]
}
