{
  "resourceType": "Bundle",
  "id": "3-gyn",
  "meta": {
    "profile": [
      "http://fhir.ch/ig/ch-orf/StructureDefinition/ch-orf-document"
    ],
    "versionId": "1",
    "lastUpdated": "2019-04-01T20:18:41.341+00:00"
  },
  "type": "document",
  "identifier": {
    "system": "urn:ietf:rfc:3986",
    "value": "urn:uuid:26d3dff7-ab05-4737-a49c-5eccd33595f8"
  },
  "timestamp": "2019-04-01T20:18:41.341+00:00",
  "entry": [
    {
      "fullUrl": "http://example.com/fhir/Composition/3-gyn",
      "resource": {
        "resourceType": "Composition",
        "id": "3-gyn",
        "meta": {
          "profile": [
            "http://fhir.ch/ig/ch-orf/StructureDefinition/ch-orf-composition"
          ],
          "versionId": "1",
          "lastUpdated": "2021-02-18T17:04:38.520+00:00"
        },
        "section": [
          {
            "code": {
              "coding": [
                {
                  "system": "http://loinc.org",
                  "code": "93037-0",
                  "display": "Portable medical order form"
                }
              ]
            },
            "title": "Order-Referral-Form 3-gyn",
            "text": {
              "status": "generated",
              "div": "<div xmlns=\"http://www.w3.org/1999/xhtml\">Order-Referral-Form 3-gyn</div>"
            },
            "entry": [
              {
                "reference": "Questionnaire/3-gyn"
              },
              {
                "reference": "QuestionnaireResponse/3-gyn"
              },
              {
                "reference": "ServiceRequest/3-gyn"
              }
            ]
          }
        ],
        "extension": [
          {
            "extension": [
              {
                "url": "enterer",
                "valueReference": {
                  "reference": "PractitionerRole/PeterPapGruppenpraxis"
                }
              }
            ],
            "url": "http://fhir.ch/ig/ch-core/StructureDefinition/ch-ext-epr-dataenterer"
          },
          {
            "url": "http://fhir.ch/ig/ch-orf/StructureDefinition/ch-orf-receiver",
            "valueReference": {
              "reference": "PractitionerRole/EvaErlenmeyerLaborPipette"
            }
          },
          {
            "url": "http://fhir.ch/ig/ch-orf/StructureDefinition/ch-orf-copyreceiver",
            "valueReference": {
              "reference": "Organization/Gruppenpraxis"
            }
          }
        ],
        "status": "final",
        "type": {
          "coding": [
            {
              "code": "721965002",
              "system": "http://snomed.info/sct",
              "display": "Laboratory order (record artifact)"
            }
          ]
        },
        "category": [
          {
            "coding": [
              {
                "code": "721963009",
                "system": "http://snomed.info/sct",
                "display": "Order (record artifact)"
              }
            ]
          }
        ],
        "subject": {
          "reference": "Patient/MarinaRubella"
        },
        "date": "2020-03-31T11:46:09+02:00",
        "author": [
          {
            "reference": "PractitionerRole/PeterPapGruppenpraxis"
          }
        ],
        "title": "Referral 3-gyn"
      }
    },
    {
      "fullUrl": "http://example.com/fhir/Patient/MarinaRubella",
      "resource": {
        "resourceType": "Patient",
        "id": "MarinaRubella",
        "meta": {
          "profile": [
            "http://fhir.ch/ig/ch-core/StructureDefinition/ch-core-patient"
          ]
        },
        "extension": [
          {
            "url": "http://hl7.org/fhir/StructureDefinition/patient-birthPlace",
            "valueAddress": {
              "city": "Mendrisio",
              "country": "Schweiz"
            }
          },
          {
            "url": "http://fhir.ch/ig/ch-core/StructureDefinition/ch-core-patient-ech-11-placeoforigin",
            "valueAddress": {
              "city": "Airolo",
              "state": "TI"
            }
          },
          {
            "url": "http://hl7.org/fhir/StructureDefinition/patient-religion",
            "valueCodeableConcept": {
              "coding": [
                {
                  "code": "1077",
                  "system": "http://terminology.hl7.org/CodeSystem/v3-ReligiousAffiliation",
                  "display": "Protestant"
                }
              ]
            }
          }
        ],
        "identifier": [
          {
            "type": {
              "coding": [
                {
                  "code": "MR",
                  "system": "http://terminology.hl7.org/CodeSystem/v2-0203"
                }
              ]
            },
            "system": "urn:oid:2.16.756.5.30.999999.1",
            "value": "012/08.111106"
          }
        ],
        "name": [
          {
            "use": "official",
            "family": "Rubella",
            "_family": {
              "extension": [
                {
                  "url": "http://fhir.ch/ig/ch-core/StructureDefinition/ch-ext-ech-11-name",
                  "valueCode": "officialName"
                }
              ]
            },
            "given": [
              "Marina"
            ],
            "_given": [
              {
                "extension": [
                  {
                    "url": "http://fhir.ch/ig/ch-core/StructureDefinition/ch-ext-ech-11-firstname",
                    "valueCode": "officialFirstName"
                  }
                ]
              }
            ]
          },
          {
            "use": "maiden",
            "family": "Meier",
            "_family": {
              "extension": [
                {
                  "url": "http://fhir.ch/ig/ch-core/StructureDefinition/ch-ext-ech-11-name",
                  "valueCode": "originalName"
                }
              ]
            }
          }
        ],
        "gender": "female",
        "birthDate": "1992-08-08",
        "maritalStatus": {
          "coding": [
            {
              "code": "2",
              "system": "http://fhir.ch/ig/ch-core/CodeSystem/ech-11-maritalstatus",
              "display": "verheiratet"
            }
          ]
        },
        "communication": [
          {
            "language": {
              "coding": [
                {
                  "code": "it-CH",
                  "system": "urn:ietf:bcp:47"
                }
              ],
              "text": "Italienisch (Schweiz)"
            },
            "preferred": true
          }
        ]
      }
    },
    {
      "fullUrl": "http://example.com/fhir/Practitioner/PeterPap",
      "resource": {
        "resourceType": "Practitioner",
        "id": "MarcApgar",
        "meta": {
          "profile": [
            "http://fhir.ch/ig/ch-core/StructureDefinition/ch-core-practitioner"
          ]
        },
        "identifier": [
          {
            "system": "urn:oid:2.51.1.3",
            "value": "7601000050717"
          }
        ],
        "name": [
          {
            "family": "Agpar",
            "given": [
              "Marc"
            ]
          }
        ],
        "telecom": [
          {
            "system": "email",
            "value": "marc.apgar@spitalseeblick.ch",
            "use": "work"
          }
        ]
      }
    },
    {
      "fullUrl": "http://example.com/fhir/Organization/Gruppenpraxis",
      "resource": {
        "resourceType": "Organization",
        "id": "Gruppenpraxis",
        "meta": {
          "profile": [
            "http://fhir.ch/ig/ch-core/StructureDefinition/ch-core-organization"
          ]
        },
        "name": "Gruppenpraxis Olten",
        "address": [
          {
            "line": [
              "Gerbergasse 12"
            ],
            "city": "Olten",
            "postalCode": "4600",
            "country": "CH"
          }
        ]
      }
    },
    {
      "fullUrl": "http://example.com/fhir/PractitionerRole/PeterPapGruppenpraxis",
      "resource": {
        "resourceType": "PractitionerRole",
        "id": "PeterPapGruppenpraxis",
        "meta": {
          "profile": [
            "http://fhir.ch/ig/ch-core/StructureDefinition/ch-core-practitionerrole"
          ]
        },
        "practitioner": {
          "reference": "Practitioner/PeterPap"
        },
        "organization": {
          "reference": "Organization/Gruppenpraxis"
        }
      }
    },
    {
      "fullUrl": "http://example.com/fhir/Questionnaire/3-gyn",
      "resource": {
        "resourceType": "Composition",
        "id": "3-gyn",
        "meta": {
          "profile": [
            "http://fhir.ch/ig/ch-orf/StructureDefinition/ch-orf-composition"
          ],
          "versionId": "1",
          "lastUpdated": "2021-02-18T17:04:38.520+00:00"
        },
        "section": [
          {
            "code": {
              "coding": [
                {
                  "system": "http://loinc.org",
                  "code": "93037-0",
                  "display": "Portable medical order form"
                }
              ]
            },
            "title": "Order-Referral-Form 3-gyn",
            "text": {
              "status": "generated",
              "div": "<div xmlns=\"http://www.w3.org/1999/xhtml\">Order-Referral-Form 3-gyn</div>"
            },
            "entry": [
              {
                "reference": "Questionnaire/3-gyn"
              },
              {
                "reference": "QuestionnaireResponse/3-gyn"
              },
              {
                "reference": "ServiceRequest/3-gyn"
              }
            ]
          }
        ],
        "extension": [
          {
            "extension": [
              {
                "url": "enterer",
                "valueReference": {
                  "reference": "PractitionerRole/PeterPapGruppenpraxis"
                }
              }
            ],
            "url": "http://fhir.ch/ig/ch-core/StructureDefinition/ch-ext-epr-dataenterer"
          },
          {
            "url": "http://fhir.ch/ig/ch-orf/StructureDefinition/ch-orf-receiver",
            "valueReference": {
              "reference": "PractitionerRole/EvaErlenmeyerLaborPipette"
            }
          },
          {
            "url": "http://fhir.ch/ig/ch-orf/StructureDefinition/ch-orf-copyreceiver",
            "valueReference": {
              "reference": "Organization/Gruppenpraxis"
            }
          }
        ],
        "status": "final",
        "type": {
          "coding": [
            {
              "code": "721965002",
              "system": "http://snomed.info/sct",
              "display": "Laboratory order (record artifact)"
            }
          ]
        },
        "category": [
          {
            "coding": [
              {
                "code": "721963009",
                "system": "http://snomed.info/sct",
                "display": "Order (record artifact)"
              }
            ]
          }
        ],
        "subject": {
          "reference": "Patient/MarinaRubella"
        },
        "date": "2020-03-31T11:46:09+02:00",
        "author": [
          {
            "reference": "PractitionerRole/PeterPapGruppenpraxis"
          }
        ],
        "title": "Referral 3-gyn"
      }
    },
    {
      "fullUrl": "http://example.com/fhir/QuestionnaireResponse/3-gyn",
      "resource": {
        "resourceType": "Composition",
        "id": "3-gyn",
        "meta": {
          "profile": [
            "http://fhir.ch/ig/ch-orf/StructureDefinition/ch-orf-composition"
          ],
          "versionId": "1",
          "lastUpdated": "2021-02-18T17:04:38.520+00:00"
        },
        "section": [
          {
            "code": {
              "coding": [
                {
                  "system": "http://loinc.org",
                  "code": "93037-0",
                  "display": "Portable medical order form"
                }
              ]
            },
            "title": "Order-Referral-Form 3-gyn",
            "text": {
              "status": "generated",
              "div": "<div xmlns=\"http://www.w3.org/1999/xhtml\">Order-Referral-Form 3-gyn</div>"
            },
            "entry": [
              {
                "reference": "Questionnaire/3-gyn"
              },
              {
                "reference": "QuestionnaireResponse/3-gyn"
              },
              {
                "reference": "ServiceRequest/3-gyn"
              }
            ]
          }
        ],
        "extension": [
          {
            "extension": [
              {
                "url": "enterer",
                "valueReference": {
                  "reference": "PractitionerRole/PeterPapGruppenpraxis"
                }
              }
            ],
            "url": "http://fhir.ch/ig/ch-core/StructureDefinition/ch-ext-epr-dataenterer"
          },
          {
            "url": "http://fhir.ch/ig/ch-orf/StructureDefinition/ch-orf-receiver",
            "valueReference": {
              "reference": "PractitionerRole/EvaErlenmeyerLaborPipette"
            }
          },
          {
            "url": "http://fhir.ch/ig/ch-orf/StructureDefinition/ch-orf-copyreceiver",
            "valueReference": {
              "reference": "Organization/Gruppenpraxis"
            }
          }
        ],
        "status": "final",
        "type": {
          "coding": [
            {
              "code": "721965002",
              "system": "http://snomed.info/sct",
              "display": "Laboratory order (record artifact)"
            }
          ]
        },
        "category": [
          {
            "coding": [
              {
                "code": "721963009",
                "system": "http://snomed.info/sct",
                "display": "Order (record artifact)"
              }
            ]
          }
        ],
        "subject": {
          "reference": "Patient/MarinaRubella"
        },
        "date": "2020-03-31T11:46:09+02:00",
        "author": [
          {
            "reference": "PractitionerRole/PeterPapGruppenpraxis"
          }
        ],
        "title": "Referral 3-gyn"
      }
    },
    {
      "fullUrl": "http://example.com/fhir/ServiceRequest/3-gyn",
      "resource": {
        "resourceType": "ServiceRequest",
        "id": "3-gyn",
        "meta": {
          "profile": [
            "http://fhir.ch/ig/ch-orf/StructureDefinition/ch-orf-servicerequest"
          ]
        },
        "identifier": [
          {
            "type": {
              "coding": [
                {
                  "system": "http://terminology.hl7.org/CodeSystem/v2-0203",
                  "code": "PLAC",
                  "display": "Placer Identifier"
                }
              ]
            },
            "system": "urn:oid:1.3.4.5.6.7",
            "value": "123"
          },
          {
            "type": {
              "coding": [
                {
                  "code": "FILL",
                  "system": "http://terminology.hl7.org/CodeSystem/v2-0203",
                  "display": "Filler Identifier"
                }
              ]
            },
            "system": "urn:oid:7.8.9.10.11",
            "value": "456"
          }
        ],
        "status": "active",
        "intent": "original-order",
        "category": [
          {
            "coding": [
              {
                "code": "108252007",
                "system": "http://snomed.info/sct"
              }
            ],
            "text": "Laboratory procedure (procedure)"
          }
        ],
        "priority": "routine",
        "subject": {
          "reference": "Patient/MarinaRubella"
        },
        "requester": {
          "reference": "PractitionerRole/PeterPapGruppenpraxis"
        },
        "reasonCode": [
          {
            "coding": [
              {
                "code": "702601001",
                "system": "http://snomed.info/sct"
              }
            ],
            "text": "Routine gynecologic examination (procedure)"
          }
        ],
        "insurance": [
          {
            "reference": "Coverage/HealthInsuranceCard"
          }
        ],
        "specimen": [
          {
            "reference": "Specimen/cervix-swab"
          },
          {
            "reference": "Specimen/blood"
          },
          {
            "reference": "Specimen/serum"
          },
          {
            "reference": "Specimen/urin"
          }
        ]
      }
    }
  ]
}
