{
  "resourceType": "Bundle",
  "id": "5-biol-monit",
  "meta": {
    "profile": [
      "http://fhir.ch/ig/ch-orf/StructureDefinition/ch-orf-document"
    ],
    "versionId": "1",
    "lastUpdated": "2019-04-01T20:18:41.341+00:00"
  },
  "type": "document",
  "identifier": {
    "system": "urn:ietf:rfc:3986",
    "value": "urn:uuid:26d3dff7-ab05-4737-a49c-5eccd3359505"
  },
  "timestamp": "2019-04-01T20:18:41.341+00:00",
  "entry": [
    {
      "fullUrl": "http://example.com/fhir/Composition/5-biol-monit",
      "resource": {
        "resourceType": "Composition",
        "id": "5-biol-monit",
        "meta": {
          "profile": [
            "http://fhir.ch/ig/ch-orf/StructureDefinition/ch-orf-composition"
          ],
          "versionId": "1",
          "lastUpdated": "2021-02-18T17:04:38.520+00:00"
        },
        "section": [
          {
            "code": {
              "coding": [
                {
                  "system": "http://loinc.org",
                  "code": "93037-0",
                  "display": "Portable medical order form"
                }
              ]
            },
            "title": "Order-Referral-Form 5-biol-monit",
            "text": {
              "status": "generated",
              "div": "<div xmlns=\"http://www.w3.org/1999/xhtml\">Order-Referral-Form 5-biol-monit</div>"
            },
            "entry": [
              {
                "reference": "Questionnaire/5-biol-monit"
              },
              {
                "reference": "QuestionnaireResponse/5-biol-monit"
              },
              {
                "reference": "ServiceRequest/5-biol-monit"
              }
            ]
          }
        ],
        "extension": [
          {
            "extension": [
              {
                "url": "enterer",
                "valueReference": {
                  "reference": "PractitionerRole/PauloPorcelliniSuva"
                }
              }
            ],
            "url": "http://fhir.ch/ig/ch-core/StructureDefinition/ch-ext-epr-dataenterer"
          },
          {
            "url": "http://fhir.ch/ig/ch-orf/StructureDefinition/ch-orf-receiver",
            "valueReference": {
              "reference": "PractitionerRole/EvaErlenmeyerLaborPipette"
            }
          },
          {
            "url": "http://fhir.ch/ig/ch-orf/StructureDefinition/ch-orf-copyreceiver",
            "valueReference": {
              "reference": "Organization/Gruppenpraxis"
            }
          },
          {
            "url": "http://fhir.ch/ig/ch-orf/StructureDefinition/ch-orf-copyreceiver",
            "valueReference": {
              "reference": "Organization/SpeiserRails"
            }
          }
        ],
        "status": "final",
        "type": {
          "coding": [
            {
              "code": "721965002",
              "system": "http://snomed.info/sct",
              "display": "Laboratory order (record artifact)"
            }
          ]
        },
        "category": [
          {
            "coding": [
              {
                "code": "721963009",
                "system": "http://snomed.info/sct",
                "display": "Order (record artifact)"
              }
            ]
          }
        ],
        "subject": {
          "reference": "Patient/BeatBorer"
        },
        "date": "2019-03-31T11:46:09+02:00",
        "author": [
          {
            "reference": "PractitionerRole/PauloPorcelliniSuva"
          }
        ],
        "title": "Referral 5-biol-monit"
      }
    },
    {
      "fullUrl": "http://example.com/fhir/Patient/BeatBorer",
      "resource": {
        "resourceType": "Patient",
        "id": "BeatBorer",
        "meta": {
          "profile": [
            "http://fhir.ch/ig/ch-core/StructureDefinition/ch-core-patient"
          ]
        },
        "extension": [
          {
            "url": "http://hl7.org/fhir/StructureDefinition/patient-birthPlace",
            "valueAddress": {
              "city": "Paris",
              "country": "Frankreich"
            }
          },
          {
            "url": "http://fhir.ch/ig/ch-core/StructureDefinition/ch-core-patient-ech-11-placeoforigin",
            "valueAddress": {
              "city": "Köniz",
              "state": "BE"
            }
          },
          {
            "url": "http://hl7.org/fhir/StructureDefinition/patient-religion",
            "valueCodeableConcept": {
              "coding": [
                {
                  "code": "1077",
                  "system": "http://terminology.hl7.org/CodeSystem/v3-ReligiousAffiliation",
                  "display": "Protestant"
                }
              ]
            }
          }
        ],
        "identifier": [
          {
            "type": {
              "coding": [
                {
                  "code": "MR",
                  "system": "http://terminology.hl7.org/CodeSystem/v2-0203"
                }
              ]
            },
            "system": "urn:oid:2.16.756.5.30.999999.1",
            "value": "012/08.111101"
          }
        ],
        "name": [
          {
            "family": "Borer",
            "given": [
              "Beat"
            ]
          }
        ],
        "gender": "male",
        "birthDate": "1986-06-06",
        "maritalStatus": {
          "coding": [
            {
              "code": "2",
              "system": "http://fhir.ch/ig/ch-core/CodeSystem/ech-11-maritalstatus",
              "display": "verheiratet"
            }
          ]
        },
        "communication": [
          {
            "language": {
              "coding": [
                {
                  "code": "de-CH",
                  "system": "urn:ietf:bcp:47"
                }
              ],
              "text": "Deutsch (Schweiz)"
            },
            "preferred": true
          }
        ]
      }
    },
    {
      "fullUrl": "http://example.com/fhir/Practitioner/PauloPorcellini",
      "resource": {
        "resourceType": "Practitioner",
        "id": "PauloPorcellini",
        "meta": {
          "profile": [
            "http://fhir.ch/ig/ch-core/StructureDefinition/ch-core-practitioner-epr"
          ]
        },
        "identifier": [
          {
            "system": "urn:oid:2.51.1.3",
            "value": "7601000050705"
          }
        ],
        "name": [
          {
            "family": "Porcellini",
            "given": [
              "Paulo"
            ]
          }
        ]
      }
    },
    {
      "fullUrl": "http://example.com/fhir/Organization/Suva",
      "resource": {
        "resourceType": "Organization",
        "id": "Suva",
        "meta": {
          "profile": [
            "http://fhir.ch/ig/ch-core/StructureDefinition/ch-core-organization-epr"
          ]
        },
        "identifier": [
          {
            "system": "urn:oid:2.16.756.5.45",
            "value": "CHE-108.955.179"
          }
        ],
        "name": "Suva",
        "telecom": [
          {
            "system": "phone",
            "value": "+41322345566",
            "use": "work"
          },
          {
            "system": "email",
            "value": "info@suva.ch",
            "use": "work"
          },
          {
            "system": "url",
            "value": "http://www.suva.ch",
            "use": "work"
          }
        ],
        "address": [
          {
            "line": [
              "Löwenplatz 1"
            ],
            "city": "Luzern",
            "postalCode": "6004",
            "country": "CH"
          }
        ]
      }
    },
    {
      "fullUrl": "http://example.com/fhir/PractitionerRole/PauloPorcelliniSuva",
      "resource": {
        "resourceType": "PractitionerRole",
        "id": "PauloPorcelliniSuva",
        "meta": {
          "profile": [
            "http://fhir.ch/ig/ch-core/StructureDefinition/ch-core-practitionerrole"
          ]
        },
        "practitioner": {
          "reference": "Practitioner/PauloPorcellini"
        },
        "organization": {
          "reference": "Organization/Suva"
        }
      }
    },
    {
      "fullUrl": "http://example.com/fhir/Questionnaire/5-biol-monit",
      "resource": {
        "resourceType": "Composition",
        "id": "5-biol-monit",
        "meta": {
          "profile": [
            "http://fhir.ch/ig/ch-orf/StructureDefinition/ch-orf-composition"
          ],
          "versionId": "1",
          "lastUpdated": "2021-02-18T17:04:38.520+00:00"
        },
        "section": [
          {
            "code": {
              "coding": [
                {
                  "system": "http://loinc.org",
                  "code": "93037-0",
                  "display": "Portable medical order form"
                }
              ]
            },
            "title": "Order-Referral-Form 5-biol-monit",
            "text": {
              "status": "generated",
              "div": "<div xmlns=\"http://www.w3.org/1999/xhtml\">Order-Referral-Form 5-biol-monit</div>"
            },
            "entry": [
              {
                "reference": "Questionnaire/5-biol-monit"
              },
              {
                "reference": "QuestionnaireResponse/5-biol-monit"
              },
              {
                "reference": "ServiceRequest/5-biol-monit"
              }
            ]
          }
        ],
        "extension": [
          {
            "extension": [
              {
                "url": "enterer",
                "valueReference": {
                  "reference": "PractitionerRole/PauloPorcelliniSuva"
                }
              }
            ],
            "url": "http://fhir.ch/ig/ch-core/StructureDefinition/ch-ext-epr-dataenterer"
          },
          {
            "url": "http://fhir.ch/ig/ch-orf/StructureDefinition/ch-orf-receiver",
            "valueReference": {
              "reference": "PractitionerRole/EvaErlenmeyerLaborPipette"
            }
          },
          {
            "url": "http://fhir.ch/ig/ch-orf/StructureDefinition/ch-orf-copyreceiver",
            "valueReference": {
              "reference": "Organization/Gruppenpraxis"
            }
          },
          {
            "url": "http://fhir.ch/ig/ch-orf/StructureDefinition/ch-orf-copyreceiver",
            "valueReference": {
              "reference": "Organization/SpeiserRails"
            }
          }
        ],
        "status": "final",
        "type": {
          "coding": [
            {
              "code": "721965002",
              "system": "http://snomed.info/sct",
              "display": "Laboratory order (record artifact)"
            }
          ]
        },
        "category": [
          {
            "coding": [
              {
                "code": "721963009",
                "system": "http://snomed.info/sct",
                "display": "Order (record artifact)"
              }
            ]
          }
        ],
        "subject": {
          "reference": "Patient/BeatBorer"
        },
        "date": "2019-03-31T11:46:09+02:00",
        "author": [
          {
            "reference": "PractitionerRole/PauloPorcelliniSuva"
          }
        ],
        "title": "Referral 5-biol-monit"
      }
    },
    {
      "fullUrl": "http://example.com/fhir/QuestionnaireResponse/5-biol-monit",
      "resource": {
        "resourceType": "Composition",
        "id": "5-biol-monit",
        "meta": {
          "profile": [
            "http://fhir.ch/ig/ch-orf/StructureDefinition/ch-orf-composition"
          ],
          "versionId": "1",
          "lastUpdated": "2021-02-18T17:04:38.520+00:00"
        },
        "section": [
          {
            "code": {
              "coding": [
                {
                  "system": "http://loinc.org",
                  "code": "93037-0",
                  "display": "Portable medical order form"
                }
              ]
            },
            "title": "Order-Referral-Form 5-biol-monit",
            "text": {
              "status": "generated",
              "div": "<div xmlns=\"http://www.w3.org/1999/xhtml\">Order-Referral-Form 5-biol-monit</div>"
            },
            "entry": [
              {
                "reference": "Questionnaire/5-biol-monit"
              },
              {
                "reference": "QuestionnaireResponse/5-biol-monit"
              },
              {
                "reference": "ServiceRequest/5-biol-monit"
              }
            ]
          }
        ],
        "extension": [
          {
            "extension": [
              {
                "url": "enterer",
                "valueReference": {
                  "reference": "PractitionerRole/PauloPorcelliniSuva"
                }
              }
            ],
            "url": "http://fhir.ch/ig/ch-core/StructureDefinition/ch-ext-epr-dataenterer"
          },
          {
            "url": "http://fhir.ch/ig/ch-orf/StructureDefinition/ch-orf-receiver",
            "valueReference": {
              "reference": "PractitionerRole/EvaErlenmeyerLaborPipette"
            }
          },
          {
            "url": "http://fhir.ch/ig/ch-orf/StructureDefinition/ch-orf-copyreceiver",
            "valueReference": {
              "reference": "Organization/Gruppenpraxis"
            }
          },
          {
            "url": "http://fhir.ch/ig/ch-orf/StructureDefinition/ch-orf-copyreceiver",
            "valueReference": {
              "reference": "Organization/SpeiserRails"
            }
          }
        ],
        "status": "final",
        "type": {
          "coding": [
            {
              "code": "721965002",
              "system": "http://snomed.info/sct",
              "display": "Laboratory order (record artifact)"
            }
          ]
        },
        "category": [
          {
            "coding": [
              {
                "code": "721963009",
                "system": "http://snomed.info/sct",
                "display": "Order (record artifact)"
              }
            ]
          }
        ],
        "subject": {
          "reference": "Patient/BeatBorer"
        },
        "date": "2019-03-31T11:46:09+02:00",
        "author": [
          {
            "reference": "PractitionerRole/PauloPorcelliniSuva"
          }
        ],
        "title": "Referral 5-biol-monit"
      }
    },
    {
      "fullUrl": "http://example.com/fhir/ServiceRequest/5-biol-monit",
      "resource": {
        "resourceType": "ServiceRequest",
        "id": "5-biol-monit",
        "meta": {
          "profile": [
            "http://fhir.ch/ig/ch-orf/StructureDefinition/ch-orf-servicerequest"
          ]
        },
        "identifier": [
          {
            "type": {
              "coding": [
                {
                  "system": "http://terminology.hl7.org/CodeSystem/v2-0203",
                  "code": "PLAC",
                  "display": "Placer Identifier"
                }
              ]
            },
            "system": "urn:oid:1.3.4.5.6.7",
            "value": "123"
          },
          {
            "type": {
              "coding": [
                {
                  "code": "FILL",
                  "system": "http://terminology.hl7.org/CodeSystem/v2-0203",
                  "display": "Filler Identifier"
                }
              ]
            },
            "system": "urn:oid:7.8.9.10.11",
            "value": "456"
          }
        ],
        "status": "active",
        "intent": "original-order",
        "category": [
          {
            "coding": [
              {
                "code": "108252007",
                "system": "http://snomed.info/sct"
              }
            ],
            "text": "Laboratory procedure (procedure)"
          }
        ],
        "priority": "urgent",
        "subject": {
          "reference": "Patient/BeatBorer"
        },
        "requester": {
          "reference": "PractitionerRole/PauloPorcelliniSuva"
        },
        "reasonCode": [
          {
            "coding": [
              {
                "code": "409967009",
                "system": "http://snomed.info/sct"
              }
            ],
            "text": "Toxicology (qualifier value)"
          }
        ],
        "insurance": [
          {
            "reference": "Coverage/HealthInsuranceCard"
          }
        ],
        "specimen": [
          {
            "reference": "Specimen/blood"
          },
          {
            "reference": "Specimen/urin"
          }
        ]
      }
    }
  ]
}
