{
  "resourceType": "Bundle",
  "id": "2-pertussis",
  "meta": {
    "profile": [
      "http://fhir.ch/ig/ch-orf/StructureDefinition/ch-orf-document"
    ],
    "versionId": "1",
    "lastUpdated": "2019-04-01T20:18:41.341+00:00"
  },
  "type": "document",
  "identifier": {
    "system": "urn:ietf:rfc:3986",
    "value": "urn:uuid:26d3dff7-ab05-4737-a49c-5eccd33595f8"
  },
  "timestamp": "2019-04-01T20:18:41.341+00:00",
  "entry": [
    {
      "fullUrl": "http://example.com/fhir/Composition/2-pertussis",
      "resource": {
        "resourceType": "Composition",
        "id": "2-pertussis",
        "meta": {
          "profile": [
            "http://fhir.ch/ig/ch-orf/StructureDefinition/ch-orf-composition"
          ],
          "versionId": "1",
          "lastUpdated": "2021-02-18T17:04:38.520+00:00"
        },
        "section": [
          {
            "code": {
              "coding": [
                {
                  "system": "http://loinc.org",
                  "code": "93037-0",
                  "display": "Portable medical order form"
                }
              ]
            },
            "title": "Order-Referral-Form 2-pertussis",
            "text": {
              "status": "generated",
              "div": "<div xmlns=\"http://www.w3.org/1999/xhtml\">Order-Referral-Form 2-pertussis</div>"
            },
            "entry": [
              {
                "reference": "Questionnaire/2-pertussis"
              },
              {
                "reference": "QuestionnaireResponse/2-pertussis"
              },
              {
                "reference": "ServiceRequest/2-pertussis"
              }
            ]
          }
        ],
        "extension": [
          {
            "extension": [
              {
                "url": "enterer",
                "valueReference": {
                  "reference": "PractitionerRole/PeterPrestoGruppenpraxis"
                }
              }
            ],
            "url": "http://fhir.ch/ig/ch-core/StructureDefinition/ch-ext-epr-dataenterer"
          },
          {
            "url": "http://fhir.ch/ig/ch-orf/StructureDefinition/ch-orf-urgentnoficationcontactfortheresponsetothisdocument",
            "valueReference": {
              "reference": "PractitionerRole/EvaErlenmeyerLaborPipette"
            }
          },
          {
            "url": "http://fhir.ch/ig/ch-orf/StructureDefinition/ch-orf-copyreceiver",
            "valueReference": {
              "reference": "Organization/Arztpraxis"
            }
          },
          {
            "url": "http://fhir.ch/ig/ch-orf/StructureDefinition/ch-orf-copyreceiver",
            "valueReference": {
              "reference": "Patient/EmilKummer"
            }
          }
        ],
        "status": "final",
        "type": {
          "coding": [
            {
              "code": "721965002",
              "system": "http://snomed.info/sct",
              "display": "Laboratory order (record artifact)"
            }
          ]
        },
        "category": [
          {
            "coding": [
              {
                "code": "721963009",
                "system": "http://snomed.info/sct",
                "display": "Order (record artifact)"
              }
            ]
          }
        ],
        "subject": {
          "reference": "Patient/EmilKummer"
        },
        "date": "2020-03-31T11:46:09+02:00",
        "author": [
          {
            "reference": "PractitionerRole/PeterPrestoGruppenpraxis"
          }
        ],
        "title": "Referral Pertussis"
      }
    },
    {
      "fullUrl": "http://example.com/fhir/Patient/EmilKummer",
      "resource": {
        "resourceType": "Patient",
        "id": "EmilKummer",
        "meta": {
          "profile": [
            "http://fhir.ch/ig/ch-core/StructureDefinition/ch-core-patient"
          ]
        },
        "extension": [
          {
            "url": "http://hl7.org/fhir/StructureDefinition/patient-birthPlace",
            "valueAddress": {
              "city": "Paris",
              "country": "Frankreich"
            }
          },
          {
            "url": "http://fhir.ch/ig/ch-core/StructureDefinition/ch-core-patient-ech-11-placeoforigin",
            "valueAddress": {
              "city": "Köniz",
              "state": "BE"
            }
          },
          {
            "url": "http://hl7.org/fhir/StructureDefinition/patient-religion",
            "valueCodeableConcept": {
              "coding": [
                {
                  "code": "1041",
                  "system": "http://terminology.hl7.org/CodeSystem/v3-ReligiousAffiliation",
                  "display": "Roman Catholic Church"
                }
              ]
            }
          }
        ],
        "identifier": [
          {
            "type": {
              "coding": [
                {
                  "code": "MR",
                  "system": "http://terminology.hl7.org/CodeSystem/v2-0203"
                }
              ]
            },
            "system": "urn:oid:2.16.756.5.30.999999.1",
            "value": "012/08.111102"
          }
        ],
        "name": [
          {
            "family": "Kummer",
            "given": [
              "Emil"
            ]
          }
        ],
        "gender": "male",
        "birthDate": "2020-05-05",
        "maritalStatus": {
          "coding": [
            {
              "code": "1",
              "system": "http://fhir.ch/ig/ch-core/CodeSystem/ech-11-maritalstatus",
              "display": "ledig"
            }
          ]
        },
        "communication": [
          {
            "language": {
              "coding": [
                {
                  "code": "de-CH",
                  "system": "urn:ietf:bcp:47"
                }
              ],
              "text": "Deutsch (Schweiz)"
            },
            "preferred": true
          }
        ]
      }
    },
    {
      "fullUrl": "http://example.com/fhir/Practitioner/PeterPresto",
      "resource": {
        "resourceType": "Practitioner",
        "id": "PeterPresto",
        "meta": {
          "profile": [
            "http://fhir.ch/ig/ch-core/StructureDefinition/ch-core-practitioner-epr"
          ]
        },
        "identifier": [
          {
            "system": "urn:oid:2.51.1.3",
            "value": "7601000050704"
          }
        ],
        "name": [
          {
            "family": "Presto",
            "given": [
              "Peter"
            ]
          }
        ]
      }
    },
    {
      "fullUrl": "http://example.com/fhir/Organization/Gruppenpraxis",
      "resource": {
        "resourceType": "Organization",
        "id": "Gruppenpraxis",
        "meta": {
          "profile": [
            "http://fhir.ch/ig/ch-core/StructureDefinition/ch-core-organization"
          ]
        },
        "name": "Gruppenpraxis Olten",
        "address": [
          {
            "line": [
              "Gerbergasse 12"
            ],
            "city": "Olten",
            "postalCode": "4600",
            "country": "CH"
          }
        ]
      }
    },
    {
      "fullUrl": "http://example.com/fhir/PractitionerRole/PeterPrestoGruppenpraxis",
      "resource": {
        "resourceType": "PractitionerRole",
        "id": "PeterPrestoGruppenpraxis",
        "meta": {
          "profile": [
            "http://fhir.ch/ig/ch-core/StructureDefinition/ch-core-practitionerrole"
          ]
        },
        "practitioner": {
          "reference": "Practitioner/PeterPresto"
        },
        "organization": {
          "reference": "Organization/Gruppenpraxis"
        }
      }
    },
    {
      "fullUrl": "http://example.com/fhir/Questionnaire/2-pertussis",
      "resource": {
        "resourceType": "Composition",
        "id": "2-pertussis",
        "meta": {
          "profile": [
            "http://fhir.ch/ig/ch-orf/StructureDefinition/ch-orf-composition"
          ],
          "versionId": "1",
          "lastUpdated": "2021-02-18T17:04:38.520+00:00"
        },
        "section": [
          {
            "code": {
              "coding": [
                {
                  "system": "http://loinc.org",
                  "code": "93037-0",
                  "display": "Portable medical order form"
                }
              ]
            },
            "title": "Order-Referral-Form 2-pertussis",
            "text": {
              "status": "generated",
              "div": "<div xmlns=\"http://www.w3.org/1999/xhtml\">Order-Referral-Form 2-pertussis</div>"
            },
            "entry": [
              {
                "reference": "Questionnaire/2-pertussis"
              },
              {
                "reference": "QuestionnaireResponse/2-pertussis"
              },
              {
                "reference": "ServiceRequest/2-pertussis"
              }
            ]
          }
        ],
        "extension": [
          {
            "extension": [
              {
                "url": "enterer",
                "valueReference": {
                  "reference": "PractitionerRole/PeterPrestoGruppenpraxis"
                }
              }
            ],
            "url": "http://fhir.ch/ig/ch-core/StructureDefinition/ch-ext-epr-dataenterer"
          },
          {
            "url": "http://fhir.ch/ig/ch-orf/StructureDefinition/ch-orf-urgentnoficationcontactfortheresponsetothisdocument",
            "valueReference": {
              "reference": "PractitionerRole/EvaErlenmeyerLaborPipette"
            }
          },
          {
            "url": "http://fhir.ch/ig/ch-orf/StructureDefinition/ch-orf-copyreceiver",
            "valueReference": {
              "reference": "Organization/Arztpraxis"
            }
          },
          {
            "url": "http://fhir.ch/ig/ch-orf/StructureDefinition/ch-orf-copyreceiver",
            "valueReference": {
              "reference": "Patient/EmilKummer"
            }
          }
        ],
        "status": "final",
        "type": {
          "coding": [
            {
              "code": "721965002",
              "system": "http://snomed.info/sct",
              "display": "Laboratory order (record artifact)"
            }
          ]
        },
        "category": [
          {
            "coding": [
              {
                "code": "721963009",
                "system": "http://snomed.info/sct",
                "display": "Order (record artifact)"
              }
            ]
          }
        ],
        "subject": {
          "reference": "Patient/EmilKummer"
        },
        "date": "2020-03-31T11:46:09+02:00",
        "author": [
          {
            "reference": "PractitionerRole/PeterPrestoGruppenpraxis"
          }
        ],
        "title": "Referral Pertussis"
      }
    },
    {
      "fullUrl": "http://example.com/fhir/QuestionnaireResponse/2-pertussis",
      "resource": {
        "resourceType": "Composition",
        "id": "2-pertussis",
        "meta": {
          "profile": [
            "http://fhir.ch/ig/ch-orf/StructureDefinition/ch-orf-composition"
          ],
          "versionId": "1",
          "lastUpdated": "2021-02-18T17:04:38.520+00:00"
        },
        "section": [
          {
            "code": {
              "coding": [
                {
                  "system": "http://loinc.org",
                  "code": "93037-0",
                  "display": "Portable medical order form"
                }
              ]
            },
            "title": "Order-Referral-Form 2-pertussis",
            "text": {
              "status": "generated",
              "div": "<div xmlns=\"http://www.w3.org/1999/xhtml\">Order-Referral-Form 2-pertussis</div>"
            },
            "entry": [
              {
                "reference": "Questionnaire/2-pertussis"
              },
              {
                "reference": "QuestionnaireResponse/2-pertussis"
              },
              {
                "reference": "ServiceRequest/2-pertussis"
              }
            ]
          }
        ],
        "extension": [
          {
            "extension": [
              {
                "url": "enterer",
                "valueReference": {
                  "reference": "PractitionerRole/PeterPrestoGruppenpraxis"
                }
              }
            ],
            "url": "http://fhir.ch/ig/ch-core/StructureDefinition/ch-ext-epr-dataenterer"
          },
          {
            "url": "http://fhir.ch/ig/ch-orf/StructureDefinition/ch-orf-urgentnoficationcontactfortheresponsetothisdocument",
            "valueReference": {
              "reference": "PractitionerRole/EvaErlenmeyerLaborPipette"
            }
          },
          {
            "url": "http://fhir.ch/ig/ch-orf/StructureDefinition/ch-orf-copyreceiver",
            "valueReference": {
              "reference": "Organization/Arztpraxis"
            }
          },
          {
            "url": "http://fhir.ch/ig/ch-orf/StructureDefinition/ch-orf-copyreceiver",
            "valueReference": {
              "reference": "Patient/EmilKummer"
            }
          }
        ],
        "status": "final",
        "type": {
          "coding": [
            {
              "code": "721965002",
              "system": "http://snomed.info/sct",
              "display": "Laboratory order (record artifact)"
            }
          ]
        },
        "category": [
          {
            "coding": [
              {
                "code": "721963009",
                "system": "http://snomed.info/sct",
                "display": "Order (record artifact)"
              }
            ]
          }
        ],
        "subject": {
          "reference": "Patient/EmilKummer"
        },
        "date": "2020-03-31T11:46:09+02:00",
        "author": [
          {
            "reference": "PractitionerRole/PeterPrestoGruppenpraxis"
          }
        ],
        "title": "Referral Pertussis"
      }
    },
    {
      "fullUrl": "http://example.com/fhir/ServiceRequest/2-pertussis",
      "resource": {
        "resourceType": "ServiceRequest",
        "id": "2-pertussis",
        "meta": {
          "profile": [
            "http://fhir.ch/ig/ch-orf/StructureDefinition/ch-orf-servicerequest"
          ]
        },
        "identifier": [
          {
            "type": {
              "coding": [
                {
                  "system": "http://terminology.hl7.org/CodeSystem/v2-0203",
                  "code": "PLAC",
                  "display": "Placer Identifier"
                }
              ]
            },
            "system": "urn:oid:1.3.4.5.6.7",
            "value": "123"
          },
          {
            "type": {
              "coding": [
                {
                  "code": "FILL",
                  "system": "http://terminology.hl7.org/CodeSystem/v2-0203",
                  "display": "Filler Identifier"
                }
              ]
            },
            "system": "urn:oid:7.8.9.10.11",
            "value": "456"
          }
        ],
        "status": "active",
        "intent": "original-order",
        "category": [
          {
            "coding": [
              {
                "code": "108252007",
                "system": "http://snomed.info/sct"
              }
            ],
            "text": "Laboratory procedure (procedure)"
          }
        ],
        "priority": "urgent",
        "subject": {
          "reference": "Patient/EmilKummer"
        },
        "requester": {
          "reference": "PractitionerRole/PeterPrestoGruppenpraxis"
        },
        "reasonCode": [
          {
            "coding": [
              {
                "code": "772146005",
                "system": "http://snomed.info/sct"
              }
            ],
            "text": "Pertussis suspected (situation)"
          }
        ],
        "insurance": [
          {
            "reference": "Coverage/HealthInsuranceCard"
          }
        ],
        "specimen": [
          {
            "reference": "Specimen/throat-swab"
          },
          {
            "reference": "Specimen/blood"
          },
          {
            "reference": "Specimen/serum"
          }
        ]
      }
    }
  ]
}
