{
  "resourceType": "Bundle",
  "id": "1-tvt",
  "meta": {
    "profile": [
      "http://fhir.ch/ig/ch-orf/StructureDefinition/ch-orf-document"
    ],
    "versionId": "1",
    "lastUpdated": "2019-04-01T20:18:41.341+00:00"
  },
  "type": "document",
  "identifier": {
    "system": "urn:ietf:rfc:3986",
    "value": "urn:uuid:26d3dff7-ab05-4737-a49c-5eccd33595f8"
  },
  "timestamp": "2019-04-01T20:18:41.341+00:00",
  "entry": [
    {
      "fullUrl": "http://example.com/fhir/Composition/1-tvt",
      "resource": {
        "resourceType": "Composition",
        "id": "1-tvt",
        "meta": {
          "profile": [
            "http://fhir.ch/ig/ch-orf/StructureDefinition/ch-orf-composition"
          ],
          "versionId": "1",
          "lastUpdated": "2021-02-18T17:04:38.520+00:00"
        },
        "section": [
          {
            "code": {
              "coding": [
                {
                  "system": "http://loinc.org",
                  "code": "93037-0",
                  "display": "Portable medical order form"
                }
              ]
            },
            "title": "Order-Referral-Form 1-tvt",
            "text": {
              "status": "generated",
              "div": "<div xmlns=\"http://www.w3.org/1999/xhtml\">Order-Referral-Form 1-tvt</div>"
            },
            "entry": [
              {
                "reference": "Questionnaire/1-tvt"
              },
              {
                "reference": "QuestionnaireResponse/1-tvt"
              },
              {
                "reference": "ServiceRequest/1-tvt"
              }
            ]
          }
        ],
        "extension": [
          {
            "extension": [
              {
                "url": "enterer",
                "valueReference": {
                  "reference": "PractitionerRole/MarcMustermannArztpraxis"
                }
              }
            ],
            "url": "http://fhir.ch/ig/ch-core/StructureDefinition/ch-ext-epr-dataenterer"
          },
          {
            "url": "http://fhir.ch/ig/ch-orf/StructureDefinition/ch-orf-urgentnoficationcontactforthisdocument",
            "valueReference": {
              "reference": "PractitionerRole/EvaErlenmeyerLaborPipette"
            }
          },
          {
            "url": "http://fhir.ch/ig/ch-orf/StructureDefinition/ch-orf-urgentnoficationcontactfortheresponsetothisdocument",
            "valueReference": {
              "reference": "PractitionerRole/MarcMustermannArztpraxis"
            }
          },
          {
            "url": "http://fhir.ch/ig/ch-orf/StructureDefinition/ch-orf-receiver",
            "valueReference": {
              "reference": "PractitionerRole/EvaErlenmeyerLaborPipette"
            }
          },
          {
            "url": "http://fhir.ch/ig/ch-orf/StructureDefinition/ch-orf-copyreceiver",
            "valueReference": {
              "reference": "Organization/Gruppenpraxis"
            }
          },
          {
            "url": "http://fhir.ch/ig/ch-orf/StructureDefinition/ch-orf-copyreceiver",
            "valueReference": {
              "reference": "Patient/HansGuggindieluft"
            }
          }
        ],
        "status": "final",
        "type": {
          "coding": [
            {
              "code": "721965002",
              "system": "http://snomed.info/sct",
              "display": "Laboratory order (record artifact)"
            }
          ]
        },
        "category": [
          {
            "coding": [
              {
                "code": "721963009",
                "system": "http://snomed.info/sct",
                "display": "Order (record artifact)"
              }
            ]
          }
        ],
        "subject": {
          "reference": "Patient/HansGuggindieluft"
        },
        "date": "2019-03-31T11:46:09+02:00",
        "author": [
          {
            "reference": "PractitionerRole/MarcMustermannArztpraxis"
          }
        ],
        "title": "Order-Referral-Form 1-tvt"
      }
    },
    {
      "fullUrl": "http://example.com/fhir/Patient/HansGuggindieluft",
      "resource": {
        "resourceType": "Patient",
        "id": "HansGuggindieluft",
        "meta": {
          "profile": [
            "http://fhir.ch/ig/ch-core/StructureDefinition/ch-core-patient"
          ]
        },
        "extension": [
          {
            "url": "http://hl7.org/fhir/StructureDefinition/patient-birthPlace",
            "valueAddress": {
              "city": "Köniz",
              "state": "BE",
              "country": "Schweiz"
            }
          }
        ],
        "identifier": [
          {
            "system": "urn:oid:2.16.756.5.32",
            "value": "012/08.111114"
          }
        ],
        "name": [
          {
            "family": "Guggindieluft",
            "given": [
              "Hans"
            ]
          }
        ],
        "gender": "male",
        "birthDate": "1981-01-01",
        "maritalStatus": {
          "coding": [
            {
              "code": "2",
              "system": "http://fhir.ch/ig/ch-core/CodeSystem/ech-11-maritalstatus",
              "display": "verheiratet"
            }
          ]
        },
        "communication": [
          {
            "language": {
              "coding": [
                {
                  "code": "de-CH",
                  "system": "urn:ietf:bcp:47"
                }
              ],
              "text": "Deutsch (Schweiz)"
            },
            "preferred": true
          }
        ]
      }
    },
    {
      "fullUrl": "http://example.com/fhir/Practitioner/MarcMustermann",
      "resource": {
        "resourceType": "Practitioner",
        "id": "MarcMustermann",
        "meta": {
          "profile": [
            "http://fhir.ch/ig/ch-core/StructureDefinition/ch-core-practitioner"
          ]
        },
        "identifier": [
          {
            "system": "urn:oid:2.51.1.3",
            "value": "7601000050702"
          }
        ],
        "name": [
          {
            "family": "Mustermann",
            "given": [
              "Marc"
            ]
          }
        ]
      }
    },
    {
      "fullUrl": "http://example.com/fhir/Organization/Gruppenpraxis",
      "resource": {
        "resourceType": "Organization",
        "id": "Gruppenpraxis",
        "meta": {
          "profile": [
            "http://fhir.ch/ig/ch-core/StructureDefinition/ch-core-organization"
          ]
        },
        "name": "Gruppenpraxis Olten",
        "address": [
          {
            "line": [
              "Gerbergasse 12"
            ],
            "city": "Olten",
            "postalCode": "4600",
            "country": "CH"
          }
        ]
      }
    },
    {
      "fullUrl": "http://example.com/fhir/PractitionerRole/MarcMustermannArztpraxis",
      "resource": {
        "resourceType": "PractitionerRole",
        "id": "MarcMustermannArztpraxis",
        "meta": {
          "profile": [
            "http://fhir.ch/ig/ch-core/StructureDefinition/ch-core-practitionerrole"
          ]
        },
        "practitioner": {
          "reference": "Practitioner/MarcMustermann"
        },
        "organization": {
          "reference": "Organization/Gruppenpraxis"
        }
      }
    },
    {
      "fullUrl": "http://example.com/fhir/Questionnaire/1-tvt",
      "resource": {
        "resourceType": "Composition",
        "id": "1-tvt",
        "meta": {
          "profile": [
            "http://fhir.ch/ig/ch-orf/StructureDefinition/ch-orf-composition"
          ],
          "versionId": "1",
          "lastUpdated": "2021-02-18T17:04:38.520+00:00"
        },
        "section": [
          {
            "code": {
              "coding": [
                {
                  "system": "http://loinc.org",
                  "code": "93037-0",
                  "display": "Portable medical order form"
                }
              ]
            },
            "title": "Order-Referral-Form 1-tvt",
            "text": {
              "status": "generated",
              "div": "<div xmlns=\"http://www.w3.org/1999/xhtml\">Order-Referral-Form 1-tvt</div>"
            },
            "entry": [
              {
                "reference": "Questionnaire/1-tvt"
              },
              {
                "reference": "QuestionnaireResponse/1-tvt"
              },
              {
                "reference": "ServiceRequest/1-tvt"
              }
            ]
          }
        ],
        "extension": [
          {
            "extension": [
              {
                "url": "enterer",
                "valueReference": {
                  "reference": "PractitionerRole/MarcMustermannArztpraxis"
                }
              }
            ],
            "url": "http://fhir.ch/ig/ch-core/StructureDefinition/ch-ext-epr-dataenterer"
          },
          {
            "url": "http://fhir.ch/ig/ch-orf/StructureDefinition/ch-orf-urgentnoficationcontactforthisdocument",
            "valueReference": {
              "reference": "PractitionerRole/EvaErlenmeyerLaborPipette"
            }
          },
          {
            "url": "http://fhir.ch/ig/ch-orf/StructureDefinition/ch-orf-urgentnoficationcontactfortheresponsetothisdocument",
            "valueReference": {
              "reference": "PractitionerRole/MarcMustermannArztpraxis"
            }
          },
          {
            "url": "http://fhir.ch/ig/ch-orf/StructureDefinition/ch-orf-receiver",
            "valueReference": {
              "reference": "PractitionerRole/EvaErlenmeyerLaborPipette"
            }
          },
          {
            "url": "http://fhir.ch/ig/ch-orf/StructureDefinition/ch-orf-copyreceiver",
            "valueReference": {
              "reference": "Organization/Gruppenpraxis"
            }
          },
          {
            "url": "http://fhir.ch/ig/ch-orf/StructureDefinition/ch-orf-copyreceiver",
            "valueReference": {
              "reference": "Patient/HansGuggindieluft"
            }
          }
        ],
        "status": "final",
        "type": {
          "coding": [
            {
              "code": "721965002",
              "system": "http://snomed.info/sct",
              "display": "Laboratory order (record artifact)"
            }
          ]
        },
        "category": [
          {
            "coding": [
              {
                "code": "721963009",
                "system": "http://snomed.info/sct",
                "display": "Order (record artifact)"
              }
            ]
          }
        ],
        "subject": {
          "reference": "Patient/HansGuggindieluft"
        },
        "date": "2019-03-31T11:46:09+02:00",
        "author": [
          {
            "reference": "PractitionerRole/MarcMustermannArztpraxis"
          }
        ],
        "title": "Order-Referral-Form 1-tvt"
      }
    },
    {
      "fullUrl": "http://example.com/fhir/QuestionnaireResponse/1-tvt",
      "resource": {
        "resourceType": "Composition",
        "id": "1-tvt",
        "meta": {
          "profile": [
            "http://fhir.ch/ig/ch-orf/StructureDefinition/ch-orf-composition"
          ],
          "versionId": "1",
          "lastUpdated": "2021-02-18T17:04:38.520+00:00"
        },
        "section": [
          {
            "code": {
              "coding": [
                {
                  "system": "http://loinc.org",
                  "code": "93037-0",
                  "display": "Portable medical order form"
                }
              ]
            },
            "title": "Order-Referral-Form 1-tvt",
            "text": {
              "status": "generated",
              "div": "<div xmlns=\"http://www.w3.org/1999/xhtml\">Order-Referral-Form 1-tvt</div>"
            },
            "entry": [
              {
                "reference": "Questionnaire/1-tvt"
              },
              {
                "reference": "QuestionnaireResponse/1-tvt"
              },
              {
                "reference": "ServiceRequest/1-tvt"
              }
            ]
          }
        ],
        "extension": [
          {
            "extension": [
              {
                "url": "enterer",
                "valueReference": {
                  "reference": "PractitionerRole/MarcMustermannArztpraxis"
                }
              }
            ],
            "url": "http://fhir.ch/ig/ch-core/StructureDefinition/ch-ext-epr-dataenterer"
          },
          {
            "url": "http://fhir.ch/ig/ch-orf/StructureDefinition/ch-orf-urgentnoficationcontactforthisdocument",
            "valueReference": {
              "reference": "PractitionerRole/EvaErlenmeyerLaborPipette"
            }
          },
          {
            "url": "http://fhir.ch/ig/ch-orf/StructureDefinition/ch-orf-urgentnoficationcontactfortheresponsetothisdocument",
            "valueReference": {
              "reference": "PractitionerRole/MarcMustermannArztpraxis"
            }
          },
          {
            "url": "http://fhir.ch/ig/ch-orf/StructureDefinition/ch-orf-receiver",
            "valueReference": {
              "reference": "PractitionerRole/EvaErlenmeyerLaborPipette"
            }
          },
          {
            "url": "http://fhir.ch/ig/ch-orf/StructureDefinition/ch-orf-copyreceiver",
            "valueReference": {
              "reference": "Organization/Gruppenpraxis"
            }
          },
          {
            "url": "http://fhir.ch/ig/ch-orf/StructureDefinition/ch-orf-copyreceiver",
            "valueReference": {
              "reference": "Patient/HansGuggindieluft"
            }
          }
        ],
        "status": "final",
        "type": {
          "coding": [
            {
              "code": "721965002",
              "system": "http://snomed.info/sct",
              "display": "Laboratory order (record artifact)"
            }
          ]
        },
        "category": [
          {
            "coding": [
              {
                "code": "721963009",
                "system": "http://snomed.info/sct",
                "display": "Order (record artifact)"
              }
            ]
          }
        ],
        "subject": {
          "reference": "Patient/HansGuggindieluft"
        },
        "date": "2019-03-31T11:46:09+02:00",
        "author": [
          {
            "reference": "PractitionerRole/MarcMustermannArztpraxis"
          }
        ],
        "title": "Order-Referral-Form 1-tvt"
      }
    },
    {
      "fullUrl": "http://example.com/fhir/ServiceRequest/1-tvt",
      "resource": {
        "resourceType": "ServiceRequest",
        "id": "1-tvt",
        "meta": {
          "profile": [
            "http://fhir.ch/ig/ch-orf/StructureDefinition/ch-orf-servicerequest"
          ]
        },
        "identifier": [
          {
            "type": {
              "coding": [
                {
                  "system": "http://terminology.hl7.org/CodeSystem/v2-0203",
                  "code": "PLAC",
                  "display": "Placer Identifier"
                }
              ]
            },
            "system": "urn:oid:1.3.4.5.6.7",
            "value": "123"
          },
          {
            "type": {
              "coding": [
                {
                  "code": "FILL",
                  "system": "http://terminology.hl7.org/CodeSystem/v2-0203",
                  "display": "Filler Identifier"
                }
              ]
            },
            "system": "urn:oid:7.8.9.10.11",
            "value": "456"
          }
        ],
        "status": "active",
        "intent": "original-order",
        "category": [
          {
            "coding": [
              {
                "code": "108252007",
                "system": "http://snomed.info/sct"
              }
            ],
            "text": "Laboratory procedure (procedure)"
          }
        ],
        "priority": "urgent",
        "subject": {
          "reference": "Patient/HansGuggindieluft"
        },
        "requester": {
          "reference": "PractitionerRole/MarcMustermannArztpraxis"
        },
        "reasonCode": [
          {
            "coding": [
              {
                "code": "404223003",
                "system": "http://snomed.info/sct"
              }
            ],
            "text": "Deep venous thrombosis of lower extremity"
          }
        ],
        "insurance": [
          {
            "reference": "Coverage/HealthInsuranceCard"
          }
        ],
        "specimen": [
          {
            "reference": "Specimen/serum",
            "display": "Serum specimen"
          },
          {
            "reference": "Specimen/blood"
          }
        ]
      }
    }
  ]
}
